Clock:offsetTime,IMU1.pressAlti (m),IMU1.altitudeMSL (m),IMU1.relativeHeight (m),IMU1.roll (deg.),IMU1.pitch (deg.),IMU1.yaw (deg.N),IMU1.accelX (m/s²),IMU1.accelY (m/s²),IMU1.accelZ (m/s²),IMU1.accelComposite (m/s²),IMU1.velN (m/s),IMU1.velE (m/s),IMU1.velD (m/s),IMU1.velComposite (m/s),IMU1.velH (m/s),IMU1.temperature (°F),IMU1.tiltInclination (deg.),IMU1.distanceTravelled (m),IMU2.pressAlti (m),IMU2.altitudeMSL (m),IMU2.relativeHeight (m),IMU2.roll (deg.),IMU2.pitch (deg.),IMU2.yaw (deg.N),IMU2.accelX (m/s²),IMU2.accelY (m/s²),IMU2.accelZ (m/s²),IMU2.accelComposite (m/s²),IMU2.velN (m/s),IMU2.velE (m/s),IMU2.velD (m/s),IMU2.velComposite (m/s),IMU2.velH (m/s),IMU2.temperature (°F),IMU2.tiltInclination (deg.),Ultrasound.height (m),GPS.numSats,GPS.Lat,GPS.Long,GPS.altitudeMSL (m),GPS.velN (m/s),GPS.velE (m/s),GPS.velD (m/s),Wind.speed (m/s),Wind.direction (rel.N),Wind.valid,Control.pitch,Control.roll,Control.yaw,Control.throttle,Motor.RFront (RPM),Motor.LFront (RPM),Motor.LBack (RPM),Motor.RBack (RPM),Motor.RFront (Volts),Motor.LFront (Volts),Motor.LBack (Volts),Motor.RBack (Volts),Motor.RFront (Amperes),Motor.LFront (Amperes),Motor.LBack (Amperes),Motor.RBack (Amperes),OsdData.relativeHeight (m),OsdData.pitch,OsdData.roll,OsdData.yaw,OsdData.ultrasonicHeight (dm),VIO.roll (deg.),VIO.pitch (deg.),VIO.yaw (deg.),Bat.Voltage (mV),Bat.Current (mA),Bat.%
-24.689,,,,,,,,,,,,,,,,,,,,,,,,,,,,,,,,,,,,,,,,,,,,,,,,,,,,,,,,,,,,,,,,,,,,,,,,,
65.941,170.25983,170.63611,-1.03184533984376,0.477674463613863,3.2019972624976,-50.0450126125109,0.05419956,-0.009642716,-1.0030936,1.004603,-0.05109732,-0.003170289,0.0068052104,0.05164589,0.0511955749614723,52.1,3.23728445791673,18.5675988908052,170.17792,169.92075,-1.11375451953126,0.556321016431724,3.17953429580306,-68.2219729874913,0.054452963,-0.009833578,-1.0035241,1.0050484,0.0000695301,0.00007895479,0.00009852225,0.0001441351,0.000105205959132614,52.09,3.22764040380334,0.1,8,51.0249894,13.7241362,160.348,0.01,0,0.01,0.21182346,30.2784897176796,1,0,0,0,0,0,0,0,0,12.02,12.02,12.02,12.07,0,0,0,0,0,42,1,-681,0,0.568438275997918,3.17635448360098,103.776709770439,11977,3693.0347,73
65.999,170.25983,170.63611,0.250198660156258,0.477674463613863,3.2019972624976,-50.0450126125109,0.05419956,-0.009642716,-1.0030936,1.004603,-0.05109732,-0.003170289,0.0068052104,0.05164589,0.0511955749614723,52.1,3.23728445791673,18.5675988908052,170.31612,169.92062,0.30648833300782,0.564528285502797,3.18091707882929,-68.2130506885767,0.05604492,-0.011158681,-1.0038788,1.0055039,0.0004984076,0.0010974397,-0.0011452048,0.0016626117,0.00120531483977732,52.11,3.23042071025634,0.1,8,51.0249894,13.7241362,160.348,0.01,0,0.01,0.21182346,30.2784897176796,1,0,0,0,0,0,0,0,0,12.02,12.02,12.02,12.07,0,0,0,0,0,42,1,-681,0,0.568438275997918,3.17635448360098,103.776709770439,11977,3693.0347,73
66.038,170.31612,170.64572,0.30648833300782,0.480058727259042,3.19773718156657,-50.052609003011,0.058536593,-0.011157876,-1.0022916,1.0040615,-0.05048333,-0.0047461707,-0.00088599743,0.050713688,0.0507059455933444,52.1,3.23342292522104,18.5798910939169,170.31612,169.92062,0.30648833300782,0.564528285502797,3.18091707882929,-68.2130506885767,0.05604492,-0.011158681,-1.0038788,1.0055039,0.0004984076,0.0010974397,-0.0011452048,0.0016626117,0.00120531483977732,52.11,3.23042071025634,0.1,8,51.0249893,13.7241361,160.309,0,0.01,0.01,0.21182346,30.2784897176796,1,0,0,0,0,0,0,0,0,12.02,12.02,12.02,12.07,0,0,0,0,0,42,1,-681,0,0.568438275997918,3.17635448360098,103.776709770439,11977,3693.0347,73
66.08,170.31612,170.64572,0.30648833300782,0.480058727259042,3.19773718156657,-50.052609003011,0.058536593,-0.011157876,-1.0022916,1.0040615,-0.05048333,-0.0047461707,-0.00088599743,0.050713688,0.0507059455933444,52.1,3.23342292522104,18.5798910939169,170.31612,169.92062,0.30648833300782,0.564528285502797,3.18091707882929,-68.2130506885767,0.05604492,-0.011158681,-1.0038788,1.0055039,0.0004984076,0.0010974397,-0.0011452048,0.0016626117,0.00120531483977732,52.11,3.23042071025634,0.1,8,51.0249893,13.7241361,160.309,0,0.01,0.01,0.21182346,30.2784897176796,1,0,0,0,0,0,0,0,0,12.02,12.02,12.02,12.07,0,0,0,0,0,42,1,-681,0,0.568438275997918,3.17635448360098,103.776709770439,11977,3693.0347,73
66.119,170.31612,170.66023,0.30648833300782,0.491713175302404,3.2179938722133,-50.0525674645342,0.046020996,-0.006880343,-0.9984267,0.9995104,-0.049726073,-0.0035759248,-0.007409912,0.05040215,0.0498544850754888,52.14,3.25518833125487,18.5904682246823,170.31612,169.92056,0.30648833300782,0.560527106433837,3.17748913803185,-68.2205941943285,0.06105825,-0.012786472,-1.0081625,1.0100907,0.0005189978,0.0003856854,-0.0015404322,0.0016706416,0.000646615757587866,52.13,3.22635109998434,0.1,8,51.0249893,13.7241361,160.309,0,0.01,0.01,0.21182346,30.2784897176796,1,0,0,0,0,0,0,0,0,12.02,12.02,12.02,12.07,0,0,0,0,0,42,1,-681,0,0.567656384122039,3.17209581476547,103.779808444773,11977,3693.0347,73
66.16,170.31612,170.66023,0.30648833300782,0.491713175302404,3.2179938722133,-50.0525674645342,0.046020996,-0.006880343,-0.9984267,0.9995104,-0.049726073,-0.0035759248,-0.007409912,0.05040215,0.0498544850754888,52.14,3.25518833125487,18.5904682246823,170.31612,169.92056,0.30648833300782,0.560527106433837,3.17748913803185,-68.2205941943285,0.06105825,-0.012786472,-1.0081625,1.0100907,0.0005189978,0.0003856854,-0.0015404322,0.0016706416,0.000646615757587866,52.13,3.22635109998434,0.1,8,51.0249893,13.7241361,160.309,0,0.01,0.01,0.21182346,30.2784897176796,1,0,0,0,0,0,0,0,0,12.02,12.02,12.02,12.07,0,0,0,0,0,42,1,-681,0,0.567656384122039,3.17209581476547,103.779808444773,11977,3693.0347,73
66.199,170.31612,170.66023,0.30648833300782,0.491713175302404,3.2179938722133,-50.0525674645342,0.046020996,-0.006880343,-0.9984267,0.9995104,-0.049726073,-0.0035759248,-0.007409912,0.05040215,0.0498544850754888,52.14,3.25518833125487,18.5904682246823,170.31612,169.92047,0.30648833300782,0.567656213185807,3.19268250701229,-68.226599706299,0.04857568,-0.007802898,-1.0012023,1.0024104,-0.0002403175,-0.00070204836,-0.0013721538,0.0015599456,0.000742040704082023,52.16,3.24254886926948,0.1,8,51.0249893,13.7241361,160.309,0,0.01,0.01,0.21182346,30.2784897176796,1,0,0,0,0,0,0,0,0,12.02,12.02,12.02,12.07,0,0,0,0,0,42,1,-681,0,0.567656384122039,3.17209581476547,103.779808444773,11977,3693.0347,73
66.238,170.31612,170.66093,0.30648833300782,0.48693879733332,3.2044672656851,-50.0499495970576,0.06069358,-0.011473787,-1.0048504,1.0067471,-0.049924165,-0.0031757597,-0.00497659,0.050272003,0.0500250713441115,52.17,3.2411005035573,18.5983761719106,170.31612,169.92047,0.30648833300782,0.567656213185807,3.19268250701229,-68.226599706299,0.04857568,-0.007802898,-1.0012023,1.0024104,-0.0002403175,-0.00070204836,-0.0013721538,0.0015599456,0.000742040704082023,52.16,3.24254886926948,0.1,8,51.0249892,13.724136,160.272,-0.02,-0.01,0.01,0.21182346,30.2784897176796,1,0,0,0,0,0,0,0,0,12.02,12.02,12.02,12.07,0,0,0,0,0,42,1,-681,0,0.567656384122039,3.17209581476547,103.779808444773,11977,3693.0347,73
66.281,170.31612,170.66093,0.30648833300782,0.48693879733332,3.2044672656851,-50.0499495970576,0.06069358,-0.011473787,-1.0048504,1.0067471,-0.049924165,-0.0031757597,-0.00497659,0.050272003,0.0500250713441115,52.17,3.2411005035573,18.5983761719106,170.31612,169.92047,0.30648833300782,0.567656213185807,3.19268250701229,-68.226599706299,0.04857568,-0.007802898,-1.0012023,1.0024104,-0.0002403175,-0.00070204836,-0.0013721538,0.0015599456,0.000742040704082023,52.16,3.24254886926948,0.1,8,51.0249892,13.724136,160.272,-0.02,-0.01,0.01,0.21182346,30.2784897176796,1,0,0,0,0,0,0,0,0,12.02,12.02,12.02,12.07,0,0,0,0,0,42,1,-681,0,0.567656384122039,3.17209581476547,103.779808444773,11977,3693.0347,73
66.319,170.31612,170.65312,0.30648833300782,0.489372846308509,3.20761161870425,-50.0531624952113,0.05934014,-0.0125604225,-1.005042,1.0068706,-0.04948328,-0.004936861,0.00052450143,0.04973171,0.0497289436920909,52.17,3.24457375529328,18.6047491633401,170.31612,169.92032,0.30648833300782,0.572755139716982,3.18449012130462,-68.2233113649181,0.05182229,-0.008227648,-1.0017205,1.0030938,0.0006057335,0.0007810124,0.00019264864,0.0010069791,0.000988379165645452,52.18,3.23537890977201,0.1,8,51.0249892,13.724136,160.272,-0.02,-0.01,0.01,0.21182346,30.2784897176796,1,0,0,0,0,0,0,0,0,12.02,12.02,12.02,12.07,0,0,0,0,0,42,1,-681,0,0.575212277641368,3.1795484937008,103.778930065574,11977,3693.0347,73
66.36,170.31612,170.65312,0.30648833300782,0.489372846308509,3.20761161870425,-50.0531624952113,0.05934014,-0.0125604225,-1.005042,1.0068706,-0.04948328,-0.004936861,0.00052450143,0.04973171,0.0497289436920909,52.17,3.24457375529328,18.6047491633401,170.31612,169.92032,0.30648833300782,0.572755139716982,3.18449012130462,-68.2233113649181,0.05182229,-0.008227648,-1.0017205,1.0030938,0.0006057335,0.0007810124,0.00019264864,0.0010069791,0.000988379165645452,52.18,3.23537890977201,0.1,8,51.0249892,13.724136,160.272,-0.02,-0.01,0.01,0.21182346,30.2784897176796,1,0,0,0,0,0,0,0,0,12.02,12.02,12.02,12.07,0,0,0,0,0,42,1,-681,0,0.575212277641368,3.1795484937008,103.778930065574,11977,3693.0347,73
66.399,170.31612,170.65312,0.30648833300782,0.489372846308509,3.20761161870425,-50.0531624952113,0.05934014,-0.0125604225,-1.005042,1.0068706,-0.04948328,-0.004936861,0.00052450143,0.04973171,0.0497289436920909,52.17,3.24457375529328,18.6047491633401,170.31612,169.92014,0.30648833300782,0.570115007497012,3.18257530216822,-68.2239420835361,0.06381538,-0.014151098,-1.0063523,1.0084729,0.0009218435,-0.0007422357,-0.0010835766,0.0016046332,0.00118351563821883,52.21,3.23302978574292,0.1,8,51.0249892,13.724136,160.272,-0.02,-0.01,0.01,0.21182346,30.2784897176796,1,0,0,0,0,0,0,0,0,12.02,12.02,12.02,12.07,0,0,0,0,0,42,1,-681,0,0.575212277641368,3.1795484937008,103.778930065574,11977,3693.0347,73
66.44,170.31612,170.65355,0.30648833300782,0.491898577380837,3.20910054052669,-50.054774256403,0.045033954,-0.0051295236,-0.99856174,0.9995899,-0.049343053,-0.0051709153,0.0007954141,0.04961963,0.049613255157566,52.22,3.2464257249175,18.6106904659305,170.31612,169.92014,0.30648833300782,0.570115007497012,3.18257530216822,-68.2239420835361,0.06381538,-0.014151098,-1.0063523,1.0084729,0.0009218435,-0.0007422357,-0.0010835766,0.0016046332,0.00118351563821883,52.21,3.23302978574292,0.1,8,51.0249892,13.724136,160.272,-0.02,-0.01,0.01,0.21182346,30.2784897176796,1,0,0,0,0,241,236,260,241,11.77,11.77,11.77,11.83,3.15,3.23,3.27,3.16,0,42,1,-681,0,0.575212277641368,3.1795484937008,103.778930065574,11977,3693.0347,73
66.481,170.31612,170.65355,0.30648833300782,0.491898577380837,3.20910054052669,-50.054774256403,0.045033954,-0.0051295236,-0.99856174,0.9995899,-0.049343053,-0.0051709153,0.0007954141,0.04961963,0.049613255157566,52.22,3.2464257249175,18.6106904659305,170.31612,169.92014,0.30648833300782,0.570115007497012,3.18257530216822,-68.2239420835361,0.06381538,-0.014151098,-1.0063523,1.0084729,0.0009218435,-0.0007422357,-0.0010835766,0.0016046332,0.00118351563821883,52.21,3.23302978574292,0.1,8,51.0249892,13.7241359,160.226,0,0,0,0.21182346,30.2784897176796,1,0,0,0,0,241,236,260,241,11.77,11.77,11.77,11.83,3.15,3.23,3.27,3.16,0,42,1,-681,0,0.575212277641368,3.1795484937008,103.778930065574,11977,3693.0347,73
66.519,170.31612,170.65302,0.30648833300782,0.487038213393819,3.1992203122542,-50.0570248953415,0.06368022,-0.013022805,-1.0069274,1.0090231,-0.04824511,-0.0049814843,-0.0010688421,0.048513383,0.0485016062119672,52.26,3.23592834850186,18.6178361615241,170.31612,169.92001,0.30648833300782,0.577021811789308,3.19011801280602,-68.2260567463167,0.045144603,-0.005648207,-0.99933016,1.0003653,0.0016918842,-0.0006664367,0.00042677933,0.0018678198,0.00181840867157046,52.25,3.24167132872404,0.1,8,51.0249892,13.7241359,160.226,0,0,0,0.21182346,30.2784897176796,1,0,0,0,0,241,236,260,241,11.77,11.77,11.77,11.83,3.15,3.23,3.27,3.16,0,42,1,-681,0,0.574533863500019,3.17866147456517,103.780968386913,11977,3693.0347,73
66.56,170.31612,170.65302,0.30648833300782,0.487038213393819,3.1992203122542,-50.0570248953415,0.06368022,-0.013022805,-1.0069274,1.0090231,-0.04824511,-0.0049814843,-0.0010688421,0.048513383,0.0485016062119672,52.26,3.23592834850186,18.6178361615241,170.31612,169.92001,0.30648833300782,0.577021811789308,3.19011801280602,-68.2260567463167,0.045144603,-0.005648207,-0.99933016,1.0003653,0.0016918842,-0.0006664367,0.00042677933,0.0018678198,0.00181840867157046,52.25,3.24167132872404,0.1,8,51.0249892,13.7241359,160.226,0,0,0,0.21182346,30.2784897176796,1,0,0,0,0,241,236,260,241,11.77,11.77,11.77,11.83,3.15,3.23,3.27,3.16,0,42,1,-681,0,0.574533863500019,3.17866147456517,103.780968386913,11977,3693.0347,73
66.599,170.31612,170.65302,0.30648833300782,0.487038213393819,3.1992203122542,-50.0570248953415,0.06368022,-0.013022805,-1.0069274,1.0090231,-0.04824511,-0.0049814843,-0.0010688421,0.048513383,0.0485016062119672,52.26,3.23592834850186,18.6178361615241,170.31612,169.91989,0.30648833300782,0.571568991732624,3.1770805772573,-68.2246011577782,0.060160637,-0.011478827,-1.0052648,1.0071287,0.0023603428,-0.00045122107,0.00036012125,0.0024299189,0.00240308518763134,52.29,3.22787775961136,0.1,8,51.0249892,13.7241359,160.226,0,0,0,0.21182346,30.2784897176796,1,0,0,0,0,241,236,260,241,11.77,11.77,11.77,11.83,3.15,3.23,3.27,3.16,0,42,1,-681,0,0.574533863500019,3.17866147456517,103.780968386913,11977,3693.0347,73
66.638,170.31612,170.65317,0.30648833300782,0.489705537384643,3.20966862504132,-50.0599856154834,0.05024228,-0.008402324,-1.0010548,1.00235,-0.04759432,-0.0058252756,0.000074470765,0.047949545,0.0479494863996009,52.28,3.24665710069464,18.6233120384336,170.31612,169.91989,0.30648833300782,0.571568991732624,3.1770805772573,-68.2246011577782,0.060160637,-0.011478827,-1.0052648,1.0071287,0.0023603428,-0.00045122107,0.00036012125,0.0024299189,0.00240308518763134,52.29,3.22787775961136,0.1,8,51.0249893,13.7241358,160.178,0,0,0,0.21182346,30.2784897176796,1,0,0,0,0,241,236,260,241,11.77,11.77,11.77,11.83,3.15,3.23,3.27,3.16,0,42,1,-681,0,0.574533863500019,3.17866147456517,103.780968386913,11932,3007.2905,73
66.68,170.31612,170.65317,0.30648833300782,0.489705537384643,3.20966862504132,-50.0599856154834,0.05024228,-0.008402324,-1.0010548,1.00235,-0.04759432,-0.0058252756,0.000074470765,0.047949545,0.0479494863996009,52.28,3.24665710069464,18.6233120384336,170.31612,169.91989,0.30648833300782,0.571568991732624,3.1770805772573,-68.2246011577782,0.060160637,-0.011478827,-1.0052648,1.0071287,0.0023603428,-0.00045122107,0.00036012125,0.0024299189,0.00240308518763134,52.29,3.22787775961136,0.1,8,51.0249893,13.7241358,160.178,0,0,0,0.21182346,30.2784897176796,1,0,0,0,0,241,236,260,241,11.77,11.77,11.77,11.83,3.15,3.23,3.27,3.16,0,42,1,-681,0,0.574533863500019,3.17866147456517,103.780968386913,11932,3007.2905,73
66.719,170.31612,170.6532,0.30648833300782,0.48474692655319,3.19795353390276,-50.0602161215007,0.054097276,-0.008468528,-1.0024017,1.0038961,-0.047268063,-0.005342153,0.0012075233,0.04758431,0.0475689855106364,52.31,3.23433329288289,18.6301756293976,170.31612,169.91975,0.30648833300782,0.575431259283239,3.18793409285719,-68.2302878913904,0.053942528,-0.010069196,-1.0021365,1.0036377,0.0032351557,-0.0016271224,0.00027480925,0.0036317047,0.00362129251107793,52.3,3.23924068931349,0.1,8,51.0249893,13.7241358,160.178,0,0,0,0.21182346,30.2784897176796,1,0,0,0,0,241,236,260,241,11.77,11.77,11.77,11.83,3.15,3.23,3.27,3.16,0,42,1,-681,0,0.578775315966666,3.18282916774115,103.780382888087,11932,3007.2905,73
66.76,170.31612,170.6532,0.30648833300782,0.48474692655319,3.19795353390276,-50.0602161215007,0.054097276,-0.008468528,-1.0024017,1.0038961,-0.047268063,-0.005342153,0.0012075233,0.04758431,0.0475689855106364,52.31,3.23433329288289,18.6301756293976,170.31612,169.91975,0.30648833300782,0.575431259283239,3.18793409285719,-68.2302878913904,0.053942528,-0.010069196,-1.0021365,1.0036377,0.0032351557,-0.0016271224,0.00027480925,0.0036317047,0.00362129251107793,52.3,3.23924068931349,0.1,8,51.0249893,13.7241358,160.178,0,0,0,0.21182346,30.2784897176796,1,0,0,0,0,241,236,260,241,11.77,11.77,11.77,11.83,3.15,3.23,3.27,3.16,0,42,1,-681,0,0.578775315966666,3.18282916774115,103.780382888087,11932,3007.2905,73
66.799,170.31612,170.6532,0.30648833300782,0.48474692655319,3.19795353390276,-50.0602161215007,0.054097276,-0.008468528,-1.0024017,1.0038961,-0.047268063,-0.005342153,0.0012075233,0.04758431,0.0475689855106364,52.31,3.23433329288289,18.6301756293976,170.31612,169.91948,0.30648833300782,0.573505252888929,3.18250008020491,-68.2280249227178,0.05088993,-0.008072862,-1.0011417,1.0024667,0.0038233555,-0.0006188235,0.0022200325,0.004464251,0.00387311116039785,52.35,3.23355285936426,0.1,8,51.0249893,13.7241358,160.178,0,0,0,0.21182346,30.2784897176796,1,0,0,0,0,241,236,260,241,11.77,11.77,11.77,11.83,3.15,3.23,3.27,3.16,0,42,1,-681,0,0.578775315966666,3.18282916774115,103.780382888087,11932,3007.2905,73
66.838,170.31612,170.653,0.30648833300782,0.484324669007193,3.20277194948438,-50.0635660653091,0.058840718,-0.012222198,-1.0048091,1.0066047,-0.04665321,-0.0063964976,0.000539309,0.047092758,0.0470896712734714,52.35,3.2390342348773,18.6368204825294,170.31612,169.91948,0.30648833300782,0.573505252888929,3.18250008020491,-68.2280249227178,0.05088993,-0.008072862,-1.0011417,1.0024667,0.0038233555,-0.0006188235,0.0022200325,0.004464251,0.00387311116039785,52.35,3.23355285936426,0.1,8,51.0249892,13.7241356,160.141,0.01,0,0.02,0.21182346,30.2784897176796,1,0,0,0,0,241,236,260,241,11.77,11.77,11.77,11.83,3.15,3.23,3.27,3.16,0,42,1,-681,0,0.578775315966666,3.18282916774115,103.780382888087,11932,3007.2905,73
66.88,170.31612,170.653,0.30648833300782,0.484324669007193,3.20277194948438,-50.0635660653091,0.058840718,-0.012222198,-1.0048091,1.0066047,-0.04665321,-0.0063964976,0.000539309,0.047092758,0.0470896712734714,52.35,3.2390342348773,18.6368204825294,170.31612,169.91948,0.30648833300782,0.573505252888929,3.18250008020491,-68.2280249227178,0.05088993,-0.008072862,-1.0011417,1.0024667,0.0038233555,-0.0006188235,0.0022200325,0.004464251,0.00387311116039785,52.35,3.23355285936426,0.1,8,51.0249892,13.7241356,160.141,0.01,0,0.02,0.21182346,30.2784897176796,1,0,0,0,0,241,236,260,241,11.77,11.77,11.77,11.83,3.15,3.23,3.27,3.16,0,42,1,-681,0,0.578775315966666,3.18282916774115,103.780382888087,11932,3007.2905,73
66.919,170.31612,170.65271,0.30648833300782,0.482996607925711,3.20294661723543,-50.0618491825903,0.048291255,-0.007748861,-1.0003717,1.0015665,-0.046851628,-0.005812167,0.002575797,0.04728098,0.0472107648694829,52.37,3.23900945097588,18.6396015912379,170.31612,169.91896,0.30648833300782,0.571095827997146,3.18231058201648,-68.2271034197536,0.06068574,-0.012345092,-1.0056857,1.0075907,0.0038490265,-0.0010185068,0.001303276,0.004189378,0.00398150244062026,52.36,3.23294163727055,0.1,8,51.0249892,13.7241356,160.141,0.01,0,0.02,0.21182346,30.2784897176796,1,0,0,0,0,241,236,260,241,11.77,11.77,11.77,11.83,3.15,3.23,3.27,3.16,0,42,1,-681,0,0.578045151870685,3.18500396597541,103.779922018382,11932,3007.2905,73
66.96,170.31612,170.65271,0.30648833300782,0.482996607925711,3.20294661723543,-50.0618491825903,0.048291255,-0.007748861,-1.0003717,1.0015665,-0.046851628,-0.005812167,0.002575797,0.04728098,0.0472107648694829,52.37,3.23900945097588,18.6396015912379,170.31612,169.91896,0.30648833300782,0.571095827997146,3.18231058201648,-68.2271034197536,0.06068574,-0.012345092,-1.0056857,1.0075907,0.0038490265,-0.0010185068,0.001303276,0.004189378,0.00398150244062026,52.36,3.23294163727055,0.1,8,51.0249892,13.7241356,160.141,0.01,0,0.02,0.21182346,30.2784897176796,1,0,0,0,0,472,467,475,466,11.77,11.77,11.77,11.85,3.36,3.4,3.44,3.36,0,42,1,-681,0,0.578045151870685,3.18500396597541,103.779922018382,11932,3007.2905,73
66.999,170.31612,170.65271,0.30648833300782,0.482996607925711,3.20294661723543,-50.0618491825903,0.048291255,-0.007748861,-1.0003717,1.0015665,-0.046851628,-0.005812167,0.002575797,0.04728098,0.0472107648694829,52.37,3.23900945097588,18.6396015912379,170.31612,169.9184,0.30648833300782,0.565591722767286,3.16819559121109,-68.2443749289727,0.051333692,-0.01041349,-1.0022067,1.0035745,0.0041768425,-0.00032411545,0.0021395716,0.004704129,0.00418939889935822,52.39,3.21808252694932,0.1,8,51.0249892,13.7241356,160.141,0.01,0,0.02,0.21182346,30.2784897176796,1,0,0,0,0,472,467,475,466,11.77,11.77,11.77,11.85,3.36,3.4,3.44,3.36,0,42,1,-681,0,0.578045151870685,3.18500396597541,103.779922018382,11932,3007.2905,73
67.038,170.31612,170.65277,0.30648833300782,0.475174165141526,3.19513181849391,-50.0583426702364,0.059335813,-0.0073486557,-1.0019873,1.0037695,-0.045669787,-0.007248982,0.0015045572,0.04626598,0.0462415103877281,52.4,3.2301274037862,18.6469414490404,170.31612,169.9184,0.30648833300782,0.565591722767286,3.16819559121109,-68.2443749289727,0.051333692,-0.01041349,-1.0022067,1.0035745,0.0041768425,-0.00032411545,0.0021395716,0.004704129,0.00418939889935822,52.39,3.21808252694932,0.1,8,51.0249892,13.7241356,160.112,0,0.01,0.01,0.21182346,30.2784897176796,1,0,0,0,0,472,467,475,466,11.77,11.77,11.77,11.85,3.36,3.4,3.44,3.36,0,42,1,-681,0,0.578045151870685,3.18500396597541,103.779922018382,11932,3007.2905,73
67.08,170.31612,170.65277,0.30648833300782,0.475174165141526,3.19513181849391,-50.0583426702364,0.059335813,-0.0073486557,-1.0019873,1.0037695,-0.045669787,-0.007248982,0.0015045572,0.04626598,0.0462415103877281,52.4,3.2301274037862,18.6469414490404,170.31612,169.9184,0.30648833300782,0.565591722767286,3.16819559121109,-68.2443749289727,0.051333692,-0.01041349,-1.0022067,1.0035745,0.0041768425,-0.00032411545,0.0021395716,0.004704129,0.00418939889935822,52.39,3.21808252694932,0.1,8,51.0249892,13.7241356,160.112,0,0.01,0.01,0.21182346,30.2784897176796,1,0,0,0,0,472,467,475,466,11.77,11.77,11.77,11.85,3.36,3.4,3.44,3.36,0,42,1,-681,0,0.578045151870685,3.18500396597541,103.779922018382,11932,3007.2905,73
67.119,170.31612,170.65254,0.30648833300782,0.44387341428204,3.1435196232361,-50.0643305429404,0.069149666,-0.015995968,-1.0057001,1.0082015,-0.04666458,-0.0069063734,0.0015474168,0.047198255,0.0471728838656028,52.44,3.17457865601822,18.6539886454534,170.31612,169.9178,0.30648833300782,0.524122980471952,3.12888908847808,-68.2322448502245,0.044911657,-0.010054897,-1.009516,1.0105646,0.0064159306,0.0006583806,0.0042127552,0.0077035665,0.0064496226195464,52.44,3.17231164111949,0.1,8,51.0249892,13.7241356,160.112,0,0.01,0.01,0.21182346,30.2784897176796,1,0,0,0,0,472,467,475,466,11.77,11.77,11.77,11.85,3.36,3.4,3.44,3.36,0,42,1,-682,0,0.569000908592716,3.17828720733157,103.783476065235,11932,3007.2905,73
67.16,170.31612,170.65254,0.30648833300782,0.44387341428204,3.1435196232361,-50.0643305429404,0.069149666,-0.015995968,-1.0057001,1.0082015,-0.04666458,-0.0069063734,0.0015474168,0.047198255,0.0471728838656028,52.44,3.17457865601822,18.6539886454534,170.31612,169.9178,0.30648833300782,0.524122980471952,3.12888908847808,-68.2322448502245,0.044911657,-0.010054897,-1.009516,1.0105646,0.0064159306,0.0006583806,0.0042127552,0.0077035665,0.0064496226195464,52.44,3.17231164111949,0.1,8,51.0249892,13.7241356,160.112,0,0.01,0.01,0.21182346,30.2784897176796,1,0,0,0,0,472,467,475,466,11.77,11.77,11.77,11.85,3.36,3.4,3.44,3.36,0,42,1,-682,0,0.569000908592716,3.17828720733157,103.783476065235,11932,3007.2905,73
67.199,170.31612,170.65254,0.30648833300782,0.44387341428204,3.1435196232361,-50.0643305429404,0.069149666,-0.015995968,-1.0057001,1.0082015,-0.04666458,-0.0069063734,0.0015474168,0.047198255,0.0471728838656028,52.44,3.17457865601822,18.6539886454534,170.31612,169.91743,0.30648833300782,0.524318026101833,3.07023536605206,-68.2087417240992,0.0637281,-0.009720724,-1.0029906,1.0050602,0.0038882843,-0.0016397863,0.0009868273,0.0043337606,0.00421991154186754,52.46,3.11451498428217,0.1,8,51.0249892,13.7241356,160.112,0,0.01,0.01,0.21182346,30.2784897176796,1,0,0,0,0,472,467,475,466,11.77,11.77,11.77,11.85,3.36,3.4,3.44,3.36,0,42,1,-682,0,0.569000908592716,3.17828720733157,103.783476065235,11932,3007.2905,73
67.238,170.31612,170.65262,0.30648833300782,0.412901418207656,3.1340229910936,-50.0665519017629,0.045580514,-0.005234395,-1.0012696,1.0023202,-0.045566496,-0.007705179,0.0013125679,0.046232004,0.0462133656820717,52.48,3.16099803256848,18.6605374799425,170.31612,169.91743,0.30648833300782,0.524318026101833,3.07023536605206,-68.2087417240992,0.0637281,-0.009720724,-1.0029906,1.0050602,0.0038882843,-0.0016397863,0.0009868273,0.0043337606,0.00421991154186754,52.46,3.11451498428217,0.1,8,51.0249892,13.7241354,160.081,0.01,-0.01,0.01,0.21182346,30.2784897176796,1,0,0,0,0,472,467,475,466,11.77,11.77,11.77,11.85,3.36,3.4,3.44,3.36,0,42,1,-682,0,0.569000908592716,3.17828720733157,103.783476065235,11932,3007.2905,73
67.28,170.31612,170.65262,0.30648833300782,0.412901418207656,3.1340229910936,-50.0665519017629,0.045580514,-0.005234395,-1.0012696,1.0023202,-0.045566496,-0.007705179,0.0013125679,0.046232004,0.0462133656820717,52.48,3.16099803256848,18.6605374799425,170.31612,169.91743,0.30648833300782,0.524318026101833,3.07023536605206,-68.2087417240992,0.0637281,-0.009720724,-1.0029906,1.0050602,0.0038882843,-0.0016397863,0.0009868273,0.0043337606,0.00421991154186754,52.46,3.11451498428217,0.1,8,51.0249892,13.7241354,160.081,0.01,-0.01,0.01,0.21182346,30.2784897176796,1,0,0,0,0,472,467,475,466,11.77,11.77,11.77,11.85,3.36,3.4,3.44,3.36,0,42,1,-682,0,0.569000908592716,3.17828720733157,103.783476065235,11932,3007.2905,73
67.319,170.31612,170.65247,0.30648833300782,0.42821946720531,3.13049712891648,-50.0716825848693,0.042402625,-0.009977553,-1.0002338,1.0011818,-0.045891687,-0.0072503584,0.003628539,0.046602372,0.0464608954587714,52.5,3.15953404411167,18.668362468253,170.31612,169.91676,0.30648833300782,0.528976334735428,3.1133583298877,-68.2270605647897,0.046551846,-0.009988252,-0.99935424,1.0004878,0.005800224,-0.0020212051,0.0037725554,0.0072083315,0.00614230170389858,52.49,3.15780241127653,0.1,8,51.0249892,13.7241354,160.081,0.01,-0.01,0.01,0.21182346,30.2784897176796,1,0,0,0,0,472,467,475,466,11.77,11.77,11.77,11.85,3.36,3.4,3.44,3.36,0,42,1,-682,0,0.513515502875961,3.07548549122939,103.778367003259,11932,3007.2905,73
67.36,170.31612,170.65247,0.30648833300782,0.42821946720531,3.13049712891648,-50.0716825848693,0.042402625,-0.009977553,-1.0002338,1.0011818,-0.045891687,-0.0072503584,0.003628539,0.046602372,0.0464608954587714,52.5,3.15953404411167,18.668362468253,170.31612,169.91676,0.30648833300782,0.528976334735428,3.1133583298877,-68.2270605647897,0.046551846,-0.009988252,-0.99935424,1.0004878,0.005800224,-0.0020212051,0.0037725554,0.0072083315,0.00614230170389858,52.49,3.15780241127653,0.1,8,51.0249892,13.7241354,160.081,0.01,-0.01,0.01,0.21182346,30.2784897176796,1,0,0,0,0,472,467,475,466,11.77,11.77,11.77,11.85,3.36,3.4,3.44,3.36,0,42,1,-682,0,0.513515502875961,3.07548549122939,103.778367003259,11932,3007.2905,73
67.399,170.31612,170.65247,0.30648833300782,0.42821946720531,3.13049712891648,-50.0716825848693,0.042402625,-0.009977553,-1.0002338,1.0011818,-0.045891687,-0.0072503584,0.003628539,0.046602372,0.0464608954587714,52.5,3.15953404411167,18.668362468253,170.31612,169.91588,0.30648833300782,0.537677333710559,3.12987729995497,-68.2448128457887,0.053436678,-0.010544821,-1.0023086,1.0037874,0.0023058315,-0.0017071702,0.005598183,0.006290544,0.00286902231255463,52.54,3.17554409298068,0.1,8,51.0249892,13.7241354,160.081,0.01,-0.01,0.01,0.21182346,30.2784897176796,1,0,0,0,0,472,467,475,466,11.77,11.77,11.77,11.85,3.36,3.4,3.44,3.36,0,42,1,-682,0,0.513515502875961,3.07548549122939,103.778367003259,11932,3007.2905,73
67.433,170.31612,170.6526,0.30648833300782,0.451182673890254,3.14595595388968,-50.0737786903433,0.053953394,-0.009750478,-1.0024616,1.0039598,-0.04489197,-0.0071151815,0.0031146454,0.045558926,0.0454523341869695,52.56,3.17801629982628,18.6829774870613,170.31612,169.91588,0.30648833300782,0.537677333710559,3.12987729995497,-68.2448128457887,0.053436678,-0.010544821,-1.0023086,1.0037874,0.0023058315,-0.0017071702,0.005598183,0.006290544,0.00286902231255463,52.54,3.17554409298068,0.1,8,51.0249892,13.7241354,160.081,0.01,-0.01,0.01,0.21182346,30.2784897176796,1,0,0,0,0,2947,3061,2886,2998,11.99,11.99,11.99,12.04,0.72,0.73,0.72,0.74,0,42,1,-681,0,0.513515502875961,3.07548549122939,103.778367003259,11932,3007.2905,73
67.48,170.31612,170.6526,0.30648833300782,0.451182673890254,3.14595595388968,-50.0737786903433,0.053953394,-0.009750478,-1.0024616,1.0039598,-0.04489197,-0.0071151815,0.0031146454,0.045558926,0.0454523341869695,52.56,3.17801629982628,18.6829774870613,170.31612,169.91588,0.30648833300782,0.537677333710559,3.12987729995497,-68.2448128457887,0.053436678,-0.010544821,-1.0023086,1.0037874,0.0023058315,-0.0017071702,0.005598183,0.006290544,0.00286902231255463,52.54,3.17554409298068,0.1,8,51.0249891,13.7241353,160.041,0.01,0,0.02,0.21182346,30.2784897176796,1,0,0,0,0,2947,3061,2886,2998,11.99,11.99,11.99,12.04,0.72,0.73,0.72,0.74,0,42,1,-681,0,0.513515502875961,3.07548549122939,103.778367003259,11932,3007.2905,73
67.519,170.31612,170.65245,0.30648833300782,0.457568064697251,3.14146037437237,-50.0473877982883,0.05572656,-0.004022415,-1.0030303,1.0045851,-0.043984547,-0.0054660337,0.0008486316,0.044331007,0.0443228820030385,52.59,3.17447694225822,18.6851371057679,170.31612,169.91495,0.30648833300782,0.553837584913783,3.12486110455477,-68.2164550361972,0.056202758,-0.0072915545,-1.0044726,1.0060701,0.0048146737,-0.0002488037,0.0043751,0.0065103373,0.00482109806702359,52.57,3.17337017606773,0.1,8,51.0249891,13.7241353,160.041,0.01,0,0.02,0.21182346,30.2784897176796,1,0,0,0,0,2947,3061,2886,2998,11.99,11.99,11.99,12.04,0.72,0.73,0.72,0.74,0,42,1,-681,0,0.550916989984008,3.13532134360592,103.818735193148,11932,3007.2905,73
67.561,170.31612,170.65245,0.30648833300782,0.457568064697251,3.14146037437237,-50.0473877982883,0.05572656,-0.004022415,-1.0030303,1.0045851,-0.043984547,-0.0054660337,0.0008486316,0.044331007,0.0443228820030385,52.59,3.17447694225822,18.6851371057679,170.31612,169.91495,0.30648833300782,0.553837584913783,3.12486110455477,-68.2164550361972,0.056202758,-0.0072915545,-1.0044726,1.0060701,0.0048146737,-0.0002488037,0.0043751,0.0065103373,0.00482109806702359,52.57,3.17337017606773,0.1,8,51.0249891,13.7241353,160.041,0.01,0,0.02,0.21182346,30.2784897176796,1,0,0,0,0,2947,3061,2886,2998,11.99,11.99,11.99,12.04,0.72,0.73,0.72,0.74,0,42,1,-681,0,0.550916989984008,3.13532134360592,103.818735193148,11932,3007.2905,73
67.599,170.31612,170.65245,0.30648833300782,0.457568064697251,3.14146037437237,-50.0473877982883,0.05572656,-0.004022415,-1.0030303,1.0045851,-0.043984547,-0.0054660337,0.0008486316,0.044331007,0.0443228820030385,52.59,3.17447694225822,18.6851371057679,170.31612,169.914,0.30648833300782,0.546083263860801,3.1313579577855,-68.207193751368,0.05276393,-0.009652158,-1.0073524,1.0087794,0.0052580377,-0.0004578606,0.0043338365,0.0068292557,0.00527793489126636,52.6,3.17843101837277,0.1,8,51.0249891,13.7241353,160.041,0.01,0,0.02,0.21182346,30.2784897176796,1,0,0,0,0,2947,3061,2886,2998,11.99,11.99,11.99,12.04,0.72,0.73,0.72,0.74,0,42,1,-681,0,0.550916989984008,3.13532134360592,103.818735193148,11932,3007.2905,73
67.639,170.31612,170.65215,0.30648833300782,0.440294702514424,3.13911794166428,-50.0697324474948,0.04944117,-0.009586705,-1.0054922,1.0067526,-0.044323724,-0.0077164005,0.0022228481,0.04504527,0.0449903914132347,52.6,3.16972335413873,18.6872701528321,170.31612,169.914,0.30648833300782,0.546083263860801,3.1313579577855,-68.207193751368,0.05276393,-0.009652158,-1.0073524,1.0087794,0.0052580377,-0.0004578606,0.0043338365,0.0068292557,0.00527793489126636,52.6,3.17843101837277,0.1,8,51.024989,13.7241352,160.015,-0.01,0,0.02,0.21182346,30.2784897176796,1,0,0,0,0,2947,3061,2886,2998,11.99,11.99,11.99,12.04,0.72,0.73,0.72,0.74,0,42,1,-681,0,0.550916989984008,3.13532134360592,103.818735193148,12025,2424.1694,73
67.68,170.31612,170.65215,0.30648833300782,0.440294702514424,3.13911794166428,-50.0697324474948,0.04944117,-0.009586705,-1.0054922,1.0067526,-0.044323724,-0.0077164005,0.0022228481,0.04504527,0.0449903914132347,52.6,3.16972335413873,18.6872701528321,170.31612,169.914,0.30648833300782,0.546083263860801,3.1313579577855,-68.207193751368,0.05276393,-0.009652158,-1.0073524,1.0087794,0.0052580377,-0.0004578606,0.0043338365,0.0068292557,0.00527793489126636,52.6,3.17843101837277,0.1,8,51.024989,13.7241352,160.015,-0.01,0,0.02,0.21182346,30.2784897176796,1,0,0,0,0,2947,3061,2886,2998,11.99,11.99,11.99,12.04,0.72,0.73,0.72,0.74,0,42,1,-681,0,0.550916989984008,3.13532134360592,103.818735193148,12025,2424.1694,73
67.719,170.31612,170.65208,0.30648833300782,0.396988943803284,3.08023525432462,-50.0463082849752,0.04578336,-0.016028875,-1.0030353,1.0042076,-0.043345463,-0.007882987,0.0031134456,0.044166323,0.0440564472229586,52.63,3.10561475149283,18.6934933288081,170.31612,169.91315,0.30648833300782,0.489916419703971,3.05869870720174,-68.2750001802703,0.05199012,-0.0032031583,-1.0024055,1.003758,0.0052166227,-0.0027175634,0.005203197,0.007853124,0.00588203218206885,52.63,3.09753856048456,0.1,8,51.024989,13.7241352,160.015,-0.01,0,0.02,0.21182346,30.2784897176796,1,0,0,0,0,2947,3061,2886,2998,11.99,11.99,11.99,12.04,0.72,0.73,0.72,0.74,0,42,1,-681,0,0.525578919913206,3.10488004770172,103.77462437052,12025,2424.1694,73
67.76,170.31612,170.65208,0.30648833300782,0.396988943803284,3.08023525432462,-50.0463082849752,0.04578336,-0.016028875,-1.0030353,1.0042076,-0.043345463,-0.007882987,0.0031134456,0.044166323,0.0440564472229586,52.63,3.10561475149283,18.6934933288081,170.31612,169.91315,0.30648833300782,0.489916419703971,3.05869870720174,-68.2750001802703,0.05199012,-0.0032031583,-1.0024055,1.003758,0.0052166227,-0.0027175634,0.005203197,0.007853124,0.00588203218206885,52.63,3.09753856048456,0.1,8,51.024989,13.7241352,160.015,-0.01,0,0.02,0.21182346,30.2784897176796,1,0,0,0,0,2947,3061,2886,2998,11.99,11.99,11.99,12.04,0.72,0.73,0.72,0.74,0,42,1,-681,0,0.525578919913206,3.10488004770172,103.77462437052,12025,2424.1694,73
67.799,170.31612,170.65208,0.30648833300782,0.396988943803284,3.08023525432462,-50.0463082849752,0.04578336,-0.016028875,-1.0030353,1.0042076,-0.043345463,-0.007882987,0.0031134456,0.044166323,0.0440564472229586,52.63,3.10561475149283,18.6934933288081,170.31612,169.91225,0.30648833300782,0.482210786912839,3.0264645916761,-68.1626771089354,0.045791656,-0.0018471414,-1.0025305,1.0035774,0.0032748652,0.0015368911,0.004029991,0.005415497,0.00361756500452679,52.63,3.06449854273612,0.1,8,51.024989,13.7241352,160.015,-0.01,0,0.02,0.21182346,30.2784897176796,1,0,0,0,0,2947,3061,2886,2998,11.99,11.99,11.99,12.04,0.72,0.73,0.72,0.74,0,42,1,-681,0,0.525578919913206,3.10488004770172,103.77462437052,12025,2424.1694,73
67.839,170.31612,170.6521,0.30648833300782,0.37939988583538,3.0219345099955,-50.052791401028,0.028463256,0.0005320851,-1.0003494,1.0007544,-0.0469561,-0.0048031537,0.0029903199,0.047295745,0.0472011174240995,52.64,3.04557043707263,18.6976873179348,170.31612,169.91225,0.30648833300782,0.482210786912839,3.0264645916761,-68.1626771089354,0.045791656,-0.0018471414,-1.0025305,1.0035774,0.0032748652,0.0015368911,0.004029991,0.005415497,0.00361756500452679,52.63,3.06449854273612,0.1,8,51.024989,13.7241351,159.966,-0.01,0.01,0.02,0.21182346,30.2784897176796,1,0,0,0,0,2947,3061,2886,2998,11.99,11.99,11.99,12.04,0.72,0.73,0.72,0.74,0,42,1,-681,0,0.525578919913206,3.10488004770172,103.77462437052,12025,2424.1694,73
67.88,170.31612,170.6521,0.30648833300782,0.37939988583538,3.0219345099955,-50.052791401028,0.028463256,0.0005320851,-1.0003494,1.0007544,-0.0469561,-0.0048031537,0.0029903199,0.047295745,0.0472011174240995,52.64,3.04557043707263,18.6976873179348,170.31612,169.91225,0.30648833300782,0.482210786912839,3.0264645916761,-68.1626771089354,0.045791656,-0.0018471414,-1.0025305,1.0035774,0.0032748652,0.0015368911,0.004029991,0.005415497,0.00361756500452679,52.63,3.06449854273612,0.1,8,51.024989,13.7241351,159.966,-0.01,0.01,0.02,0.21182346,30.2784897176796,1,0,0,0,0,2947,3061,2886,2998,11.99,11.99,11.99,12.04,0.72,0.73,0.72,0.74,0,42,1,-681,0,0.525578919913206,3.10488004770172,103.77462437052,12025,2424.1694,73
67.919,170.31612,170.65184,0.30648833300782,0.363440926292054,3.06426539929253,-50.2567845611489,0.038579736,-0.020875359,-1.0022547,1.0032142,-0.05102135,0.006892482,0.005983147,0.051831286,0.0514847959246527,52.71,3.08566179308609,18.7048495091951,170.31612,169.9113,0.30648833300782,0.465761700050149,3.01849135020215,-68.3727068355397,0.04782459,0.0010817414,-0.9920734,0.99322605,0.0036471486,0.01515144,0.0063831,0.016840778,0.0155842172463886,52.69,3.05408289118983,0.1,8,51.024989,13.7241351,159.966,-0.01,0.01,0.02,0.21182346,30.2784897176796,1,0,0,0,0,2947,3061,2886,2998,11.99,11.99,11.99,12.04,0.72,0.73,0.72,0.74,0,42,1,-681,0,0.483446286984209,2.99773765494103,103.818834835756,12025,2424.1694,73
67.96,170.31612,170.65184,0.30648833300782,0.363440926292054,3.06426539929253,-50.2567845611489,0.038579736,-0.020875359,-1.0022547,1.0032142,-0.05102135,0.006892482,0.005983147,0.051831286,0.0514847959246527,52.71,3.08566179308609,18.7048495091951,170.31612,169.9113,0.30648833300782,0.465761700050149,3.01849135020215,-68.3727068355397,0.04782459,0.0010817414,-0.9920734,0.99322605,0.0036471486,0.01515144,0.0063831,0.016840778,0.0155842172463886,52.69,3.05408289118983,0.1,8,51.024989,13.7241351,159.966,-0.01,0.01,0.02,0.21182346,30.2784897176796,1,0,0,0,0,4645,4748,4919,4859,11.68,11.67,11.67,11.73,1.44,1.43,1.61,1.47,0,42,1,-681,0,0.483446286984209,2.99773765494103,103.818834835756,12025,2424.1694,73
67.999,170.31612,170.65184,0.30648833300782,0.363440926292054,3.06426539929253,-50.2567845611489,0.038579736,-0.020875359,-1.0022547,1.0032142,-0.05102135,0.006892482,0.005983147,0.051831286,0.0514847959246527,52.71,3.08566179308609,18.7048495091951,170.31612,169.91081,0.30648833300782,0.482121722867706,2.43283808928662,-68.4863830735921,0.040743064,-0.0150244925,-1.0284024,1.0293189,0.0003406101,0.024279453,-0.012048293,0.027106626,0.0242818423013911,52.7,2.48003714889268,0.1,8,51.024989,13.7241351,159.966,-0.01,0.01,0.02,0.21182346,30.2784897176796,1,0,0,0,0,4645,4748,4919,4859,11.68,11.67,11.67,11.73,1.44,1.43,1.61,1.47,0,42,1,-681,0,0.483446286984209,2.99773765494103,103.818834835756,12025,2424.1694,73
68.039,170.31612,170.65234,0.30648833300782,0.363534648499662,1.92922135527281,-50.3121001458356,0.031889815,-0.00542471,-1.0281664,1.0286752,-0.055654496,0.015448233,-0.024070995,0.06257383,0.0577587292443783,52.71,1.96312322917221,18.7123497565057,170.31612,169.91081,0.30648833300782,0.482121722867706,2.43283808928662,-68.4863830735921,0.040743064,-0.0150244925,-1.0284024,1.0293189,0.0003406101,0.024279453,-0.012048293,0.027106626,0.0242818423013911,52.7,2.48003714889268,0.1,8,51.0249889,13.7241349,159.938,0.02,0.01,0.02,0.21182346,30.2784897176796,1,0,0,0,0,4645,4748,4919,4859,11.68,11.67,11.67,11.73,1.44,1.43,1.61,1.47,0,34,0,-684,0,0.483446286984209,2.99773765494103,103.818834835756,12025,2424.1694,73
68.08,170.31612,170.65234,0.30648833300782,0.363534648499662,1.92922135527281,-50.3121001458356,0.031889815,-0.00542471,-1.0281664,1.0286752,-0.055654496,0.015448233,-0.024070995,0.06257383,0.0577587292443783,52.71,1.96312322917221,18.7123497565057,170.31612,169.91081,0.30648833300782,0.482121722867706,2.43283808928662,-68.4863830735921,0.040743064,-0.0150244925,-1.0284024,1.0293189,0.0003406101,0.024279453,-0.012048293,0.027106626,0.0242818423013911,52.7,2.48003714889268,0.1,8,51.0249889,13.7241349,159.938,0.02,0.01,0.02,0.21182346,30.2784897176796,1,0,0,0,0,4645,4748,4919,4859,11.68,11.67,11.67,11.73,1.44,1.43,1.61,1.47,0,34,0,-684,0,0.483446286984209,2.99773765494103,103.818834835756,12025,2424.1694,73
68.119,170.31612,170.65776,0.30648833300782,0.191309410293343,-1.77474025404198,-50.4353579958509,-0.042972364,0.0067666145,-1.1107175,1.1115692,-0.060943633,0.026440607,-0.09123727,0.112860404,0.0664321624463503,52.73,1.78500853255021,18.7217903622552,170.31612,169.9145,0.30648833300782,0.342745658967773,-1.08469117918857,-68.5515787635534,-0.030385576,-0.007146812,-1.0893083,1.0897554,-0.0022494735,0.040433556,-0.07477025,0.08503248,0.0404960801861493,52.74,1.13752952251411,0.1,8,51.0249889,13.7241349,159.938,0.02,0.01,0.02,0.21182346,30.2784897176796,1,0,0,0,0,4645,4748,4919,4859,11.68,11.67,11.67,11.73,1.44,1.43,1.61,1.47,0,34,0,-684,0,0.479729566972412,2.65078933473263,103.547115531894,12025,2424.1694,73
68.161,170.31612,170.65776,0.30648833300782,0.191309410293343,-1.77474025404198,-50.4353579958509,-0.042972364,0.0067666145,-1.1107175,1.1115692,-0.060943633,0.026440607,-0.09123727,0.112860404,0.0664321624463503,52.73,1.78500853255021,18.7217903622552,170.31612,169.9145,0.30648833300782,0.342745658967773,-1.08469117918857,-68.5515787635534,-0.030385576,-0.007146812,-1.0893083,1.0897554,-0.0022494735,0.040433556,-0.07477025,0.08503248,0.0404960801861493,52.74,1.13752952251411,0.1,8,51.0249889,13.7241349,159.938,0.02,0.01,0.02,0.21182346,30.2784897176796,1,0,0,0,0,4645,4748,4919,4859,11.68,11.67,11.67,11.73,1.44,1.43,1.61,1.47,0,34,0,-684,0,0.479729566972412,2.65078933473263,103.547115531894,12025,2424.1694,73
68.199,170.31612,170.65776,0.30648833300782,0.191309410293343,-1.77474025404198,-50.4353579958509,-0.042972364,0.0067666145,-1.1107175,1.1115692,-0.060943633,0.026440607,-0.09123727,0.112860404,0.0664321624463503,52.73,1.78500853255021,18.7217903622552,170.31612,169.9268,0.30648833300782,0.465477935318708,-2.88643945681837,-68.7165728570724,-0.04450379,0.0079305805,-1.205988,1.206835,0.008005006,0.030413304,-0.19437769,0.1969054,0.0314491527297502,52.75,2.92360568104964,0.1,8,51.0249889,13.7241349,159.938,0.02,0.01,0.02,0.21182346,30.2784897176796,1,0,0,0,0,4645,4748,4919,4859,11.68,11.67,11.67,11.73,1.44,1.43,1.61,1.47,0,34,0,-684,0,0.479729566972412,2.65078933473263,103.547115531894,12025,2424.1694,73
68.239,170.31612,170.67442,0.30648833300782,0.429103637963464,-2.67090022941398,-50.5201501192905,-0.034947865,0.005656842,-1.2002906,1.2008126,-0.039879054,0.016763505,-0.23117684,0.23518947,0.043259148704363,52.76,2.70505176357108,18.730362899338,170.31612,169.9268,0.30648833300782,0.465477935318708,-2.88643945681837,-68.7165728570724,-0.04450379,0.0079305805,-1.205988,1.206835,0.008005006,0.030413304,-0.19437769,0.1969054,0.0314491527297502,52.75,2.92360568104964,0.1,8,51.0249889,13.7241349,159.89,0,0.05,0.02,0.21182346,30.2784897176796,1,0,0,0,0,4645,4748,4919,4859,11.68,11.67,11.67,11.73,1.44,1.43,1.61,1.47,0,-17,0,-686,0,0.479729566972412,2.65078933473263,103.547115531894,12025,2424.1694,73
68.28,170.31612,170.67442,0.30648833300782,0.429103637963464,-2.67090022941398,-50.5201501192905,-0.034947865,0.005656842,-1.2002906,1.2008126,-0.039879054,0.016763505,-0.23117684,0.23518947,0.043259148704363,52.76,2.70505176357108,18.730362899338,170.31612,169.9268,0.30648833300782,0.465477935318708,-2.88643945681837,-68.7165728570724,-0.04450379,0.0079305805,-1.205988,1.206835,0.008005006,0.030413304,-0.19437769,0.1969054,0.0314491527297502,52.75,2.92360568104964,0.1,8,51.0249889,13.7241349,159.89,0,0.05,0.02,0.21182346,30.2784897176796,1,0,0,0,0,4645,4748,4919,4859,11.68,11.67,11.67,11.73,1.44,1.43,1.61,1.47,0,-17,0,-686,0,0.479729566972412,2.65078933473263,103.547115531894,12025,2424.1694,73
68.319,170.31612,170.70583,0.30648833300782,0.416920735893677,-1.8072608326989,-50.393467529313,-0.040538695,-0.0185821,-1.1206946,1.1215816,-0.022542622,0.0072753695,-0.38982773,0.39054674,0.0236875671659256,52.79,1.85466550711905,18.734839035455,170.31612,169.95389,0.30648833300782,0.575100211096719,-2.0978583217708,-68.5294958060532,-0.03323099,0.0070911488,-1.1524293,1.1529301,0.021481037,0.011707738,-0.36108896,0.36191675,0.0244643837174262,52.79,2.17512275627943,0.1,8,51.0249889,13.7241349,159.89,0,0.05,0.02,0.21182346,30.2784897176796,1,0,0,0,0,4645,4748,4919,4859,11.68,11.67,11.67,11.73,1.44,1.43,1.61,1.47,0,-17,0,-686,0,0.298647571235533,-2.93474598605988,103.34166751235,12025,2424.1694,73
68.358,170.31612,170.70583,0.30648833300782,0.416920735893677,-1.8072608326989,-50.393467529313,-0.040538695,-0.0185821,-1.1206946,1.1215816,-0.022542622,0.0072753695,-0.38982773,0.39054674,0.0236875671659256,52.79,1.85466550711905,18.734839035455,170.31612,169.95389,0.30648833300782,0.575100211096719,-2.0978583217708,-68.5294958060532,-0.03323099,0.0070911488,-1.1524293,1.1529301,0.021481037,0.011707738,-0.36108896,0.36191675,0.0244643837174262,52.79,2.17512275627943,0.1,8,51.0249889,13.7241349,159.89,0,0.05,0.02,0.21182346,30.2784897176796,1,0,0,0,0,4645,4748,4919,4859,11.68,11.67,11.67,11.73,1.44,1.43,1.61,1.47,0,-17,0,-686,0,0.298647571235533,-2.93474598605988,103.34166751235,12025,2424.1694,73
68.399,170.31612,170.70583,0.30648833300782,0.416920735893677,-1.8072608326989,-50.393467529313,-0.040538695,-0.0185821,-1.1206946,1.1215816,-0.022542622,0.0072753695,-0.38982773,0.39054674,0.0236875671659256,52.79,1.85466550711905,18.734839035455,170.31612,169.99435,0.30648833300782,0.363702973137913,-1.00607412418724,-68.6121678499588,-0.021209382,-0.00847611,-1.0244678,1.0247223,0.028754834,0.015354777,-0.435126,0.43634534,0.0325976932398573,52.83,1.0697712952766,0.1,8,51.0249889,13.7241349,159.89,0,0.05,0.02,0.21182346,30.2784897176796,1,0,0,0,0,4645,4748,4919,4859,11.68,11.67,11.67,11.73,1.44,1.43,1.61,1.47,0,-17,0,-686,0,0.298647571235533,-2.93474598605988,103.34166751235,12025,2424.1694,73
68.438,170.31612,170.7478,0.30648833300782,0.252570410073924,-1.01862032372984,-50.5272715293561,-0.025743011,-0.017899947,-1.0165392,1.0170227,-0.020686941,0.011641933,-0.4512669,0.45189083,0.023737821107177,52.83,1.04945333244885,18.7384716296237,170.31612,169.99435,0.30648833300782,0.363702973137913,-1.00607412418724,-68.6121678499588,-0.021209382,-0.00847611,-1.0244678,1.0247223,0.028754834,0.015354777,-0.435126,0.43634534,0.0325976932398573,52.83,1.0697712952766,0.1,8,51.0249889,13.7241349,159.89,0,0.05,0.02,0.21182346,30.2784897176796,1,0,0,0,0,6514,6624,5684,5908,11.54,11.54,11.54,11.57,2.5,2.46,1.98,2.02,0,-17,0,-686,0,0.298647571235533,-2.93474598605988,103.34166751235,12025,2424.1694,73
68.481,170.31612,170.7478,0.30648833300782,0.252570410073924,-1.01862032372984,-50.5272715293561,-0.025743011,-0.017899947,-1.0165392,1.0170227,-0.020686941,0.011641933,-0.4512669,0.45189083,0.023737821107177,52.83,1.04945333244885,18.7384716296237,170.31612,169.99435,0.30648833300782,0.363702973137913,-1.00607412418724,-68.6121678499588,-0.021209382,-0.00847611,-1.0244678,1.0247223,0.028754834,0.015354777,-0.435126,0.43634534,0.0325976932398573,52.83,1.0697712952766,0.1,8,51.0249888,13.7241348,159.881,-0.08,0.07,-0.09,0.21182346,30.2784897176796,1,0,0,0,0,6514,6624,5684,5908,11.54,11.54,11.54,11.57,2.5,2.46,1.98,2.02,0,-17,0,-686,0,0.298647571235533,-2.93474598605988,103.34166751235,12025,2424.1694,73
68.519,170.31612,170.78781,0.30648833300782,-0.114034293952161,-1.25931300343882,-50.490529303584,-0.024454635,0.0009945007,-1.0272083,1.0274999,-0.026752265,0.014844231,-0.45827472,0.45929483,0.0305946873201876,52.87,1.26446221252066,18.7452819252497,170.31612,170.03812,0.30648833300782,-0.0636806593833542,-1.19542076759002,-68.6614473923486,-0.02231381,-0.0154021,-1.0124681,1.0128311,0.024186641,0.023556134,-0.44872728,0.4499956,0.0337621836890131,52.85,1.19711473333456,0.1,8,51.0249888,13.7241348,159.881,-0.08,0.07,-0.09,0.21182346,30.2784897176796,1,0,0,0,0,6514,6624,5684,5908,11.54,11.54,11.54,11.57,2.5,2.46,1.98,2.02,0,-17,0,-686,0,0.350946174163406,-1.04001026979077,103.437094219682,12025,2424.1694,73
68.56,170.31612,170.78781,0.30648833300782,-0.114034293952161,-1.25931300343882,-50.490529303584,-0.024454635,0.0009945007,-1.0272083,1.0274999,-0.026752265,0.014844231,-0.45827472,0.45929483,0.0305946873201876,52.87,1.26446221252066,18.7452819252497,170.31612,170.03812,0.30648833300782,-0.0636806593833542,-1.19542076759002,-68.6614473923486,-0.02231381,-0.0154021,-1.0124681,1.0128311,0.024186641,0.023556134,-0.44872728,0.4499956,0.0337621836890131,52.85,1.19711473333456,0.1,8,51.0249888,13.7241348,159.881,-0.08,0.07,-0.09,0.21182346,30.2784897176796,1,0,0,0,0,6514,6624,5684,5908,11.54,11.54,11.54,11.57,2.5,2.46,1.98,2.02,0,-17,0,-686,0,0.350946174163406,-1.04001026979077,103.437094219682,12025,2424.1694,73
68.599,170.31612,170.78781,0.30648833300782,-0.114034293952161,-1.25931300343882,-50.490529303584,-0.024454635,0.0009945007,-1.0272083,1.0274999,-0.026752265,0.014844231,-0.45827472,0.45929483,0.0305946873201876,52.87,1.26446221252066,18.7452819252497,170.31612,170.08324,0.30648833300782,-0.00655250122010172,-0.61985344881797,-68.7685934382107,-0.013944838,-0.0019606035,-0.99765795,0.9977573,0.015618444,0.026795553,-0.45764616,0.45869592,0.0310151168940168,52.91,0.619888075852393,0.1,8,51.0249888,13.7241348,159.881,-0.08,0.07,-0.09,0.21182346,30.2784897176796,1,0,0,0,0,6514,6624,5684,5908,11.54,11.54,11.54,11.57,2.5,2.46,1.98,2.02,0,-17,0,-686,0,0.350946174163406,-1.04001026979077,103.437094219682,12025,2424.1694,73
68.639,170.31612,170.81927,0.30648833300782,-0.0879153692918939,-0.671096688356954,-50.6061007246905,-0.017113347,0.01428327,-0.9973917,0.9976407,-0.032218255,0.01713601,-0.4460475,0.44753775,0.0364919004857776,52.89,0.676829715334305,18.7518183357592,170.31612,170.08324,0.30648833300782,-0.00655250122010172,-0.61985344881797,-68.7685934382107,-0.013944838,-0.0019606035,-0.99765795,0.9977573,0.015618444,0.026795553,-0.45764616,0.45869592,0.0310151168940168,52.91,0.619888075852393,0.1,8,51.0249888,13.7241344,159.931,0.02,-0.03,-0.15,0.21182346,30.2784897176796,1,0,0,0,0,6514,6624,5684,5908,11.54,11.54,11.54,11.57,2.5,2.46,1.98,2.02,0.1,4,-3,-687,2,0.350946174163406,-1.04001026979077,103.437094219682,11741,2020.2856,73
68.68,170.31612,170.81927,0.30648833300782,-0.0879153692918939,-0.671096688356954,-50.6061007246905,-0.017113347,0.01428327,-0.9973917,0.9976407,-0.032218255,0.01713601,-0.4460475,0.44753775,0.0364919004857776,52.89,0.676829715334305,18.7518183357592,170.31612,170.08324,0.30648833300782,-0.00655250122010172,-0.61985344881797,-68.7685934382107,-0.013944838,-0.0019606035,-0.99765795,0.9977573,0.015618444,0.026795553,-0.45764616,0.45869592,0.0310151168940168,52.91,0.619888075852393,0.1,8,51.0249888,13.7241344,159.931,0.02,-0.03,-0.15,0.21182346,30.2784897176796,1,0,0,0,0,6514,6624,5684,5908,11.54,11.54,11.54,11.57,2.5,2.46,1.98,2.02,0.1,4,-3,-687,2,0.350946174163406,-1.04001026979077,103.437094219682,11741,2020.2856,73
68.719,170.41699,170.81717,0.407364187500008,-0.233565110427969,-1.09774647021578,-50.6469016327434,-0.025114499,0.0050987736,-1.0018059,1.0021336,-0.03676483,0.027805202,-0.38025934,0.383043,0.0460953571758685,52.93,1.12230712306988,18.7604266629548,170.31612,170.12914,0.30648833300782,-0.0632139800919878,-0.987725892316497,-68.8052306971651,-0.026789684,0.006619053,-0.9921955,0.99257916,0.017272478,0.034723077,-0.45776865,0.4594085,0.0387818326579703,52.91,0.989745857507185,0.1,8,51.0249888,13.7241344,159.931,0.02,-0.03,-0.15,0.21182346,30.2784897176796,1,0,0,0,0,6514,6624,5684,5908,11.54,11.54,11.54,11.57,2.5,2.46,1.98,2.02,0.1,4,-3,-687,2,0.0231725032483728,-0.698561939953058,103.276884158612,11741,2020.2856,73
68.76,170.41699,170.81717,0.407364187500008,-0.233565110427969,-1.09774647021578,-50.6469016327434,-0.025114499,0.0050987736,-1.0018059,1.0021336,-0.03676483,0.027805202,-0.38025934,0.383043,0.0460953571758685,52.93,1.12230712306988,18.7604266629548,170.31612,170.12914,0.30648833300782,-0.0632139800919878,-0.987725892316497,-68.8052306971651,-0.026789684,0.006619053,-0.9921955,0.99257916,0.017272478,0.034723077,-0.45776865,0.4594085,0.0387818326579703,52.91,0.989745857507185,0.1,8,51.0249888,13.7241344,159.931,0.02,-0.03,-0.15,0.21182346,30.2784897176796,1,0,0,0,0,6514,6624,5684,5908,11.54,11.54,11.54,11.57,2.5,2.46,1.98,2.02,0.1,4,-3,-687,2,0.0231725032483728,-0.698561939953058,103.276884158612,11741,2020.2856,73
68.799,170.41699,170.81717,0.407364187500008,-0.233565110427969,-1.09774647021578,-50.6469016327434,-0.025114499,0.0050987736,-1.0018059,1.0021336,-0.03676483,0.027805202,-0.38025934,0.383043,0.0460953571758685,52.93,1.12230712306988,18.7604266629548,170.45662,170.176,0.44699126269532,-0.592611754364564,-1.49419676913806,-68.7996658517015,-0.027532142,-0.0091148885,-1.0165994,1.017013,0.011003801,0.035800245,-0.4615158,0.46303302,0.0374531849813717,52.94,1.60732521330331,0.247,8,51.0249888,13.7241344,159.931,0.02,-0.03,-0.15,0.21182346,30.2784897176796,1,0,0,0,0,6514,6624,5684,5908,11.54,11.54,11.54,11.57,2.5,2.46,1.98,2.02,0.1,4,-3,-687,2,0.0231725032483728,-0.698561939953058,103.276884158612,11741,2020.2856,73
68.841,170.64687,170.82982,0.63723784472657,-0.713782153673375,-1.57502742631259,-50.6635662721222,-0.030773923,-0.0025548972,-1.0086254,1.0090979,-0.045979664,0.023372058,-0.33862284,0.34252855,0.0515788962564525,52.96,1.72907005271964,18.7607747891046,170.45662,170.176,0.44699126269532,-0.592611754364564,-1.49419676913806,-68.7996658517015,-0.027532142,-0.0091148885,-1.0165994,1.017013,0.011003801,0.035800245,-0.4615158,0.46303302,0.0374531849813717,52.94,1.60732521330331,0.247,8,51.0249888,13.7241344,159.931,0.02,-0.03,-0.15,0.21182346,30.2784897176796,1,0,0,0,0,6514,6624,5684,5908,11.54,11.54,11.54,11.57,2.5,2.46,1.98,2.02,0.2,-3,-9,-688,3,0.0231725032483728,-0.698561939953058,103.276884158612,11741,2020.2856,73
68.88,170.64687,170.82982,0.63723784472657,-0.713782153673375,-1.57502742631259,-50.6635662721222,-0.030773923,-0.0025548972,-1.0086254,1.0090979,-0.045979664,0.023372058,-0.33862284,0.34252855,0.0515788962564525,52.96,1.72907005271964,18.7607747891046,170.45662,170.176,0.44699126269532,-0.592611754364564,-1.49419676913806,-68.7996658517015,-0.027532142,-0.0091148885,-1.0165994,1.017013,0.011003801,0.035800245,-0.4615158,0.46303302,0.0374531849813717,52.94,1.60732521330331,0.247,8,51.0249889,13.7241347,159.974,-0.01,0.05,-0.2,0.21182346,30.2784897176796,1,0,0,0,0,6514,6624,5684,5908,11.54,11.54,11.54,11.57,2.5,2.46,1.98,2.02,0.2,-3,-9,-688,3,0.0231725032483728,-0.698561939953058,103.276884158612,11741,2020.2856,73
68.919,170.54909,170.86406,0.53945952441407,-0.510018700213828,-1.93562123888544,-50.6359504998183,-0.02691488,0.00073624495,-1.0203072,1.0206623,-0.05486819,0.014641589,-0.34738314,0.35199425,0.0567881537330746,52.98,2.00158763497709,18.7680071725231,170.55702,170.22377,0.54739409472657,-0.422768554582655,-1.83087814912754,-68.8124575024226,-0.030574799,-0.004689998,-1.0088595,1.0093336,-0.0019897479,0.03209062,-0.47198576,0.47307962,0.0321522455463061,52.97,1.87899037565546,0.247,11,51.0249889,13.7241347,159.974,-0.01,0.05,-0.2,0.21182346,30.2784897176796,1,0,0,0,0,6514,6624,5684,5908,11.54,11.54,11.54,11.57,2.5,2.46,1.98,2.02,0.2,-3,-9,-688,3,-0.53431312115463,-1.45717172746932,103.214590236329,11741,2020.2856,73
68.96,170.54909,170.86406,0.53945952441407,-0.510018700213828,-1.93562123888544,-50.6359504998183,-0.02691488,0.00073624495,-1.0203072,1.0206623,-0.05486819,0.014641589,-0.34738314,0.35199425,0.0567881537330746,52.98,2.00158763497709,18.7680071725231,170.55702,170.22377,0.54739409472657,-0.422768554582655,-1.83087814912754,-68.8124575024226,-0.030574799,-0.004689998,-1.0088595,1.0093336,-0.0019897479,0.03209062,-0.47198576,0.47307962,0.0321522455463061,52.97,1.87899037565546,0.247,11,51.0249889,13.7241347,159.974,-0.01,0.05,-0.2,0.21182346,30.2784897176796,1,0,0,0,0,6626,6589,6035,5806,11.52,11.52,11.52,11.55,2.5,2.48,2.13,1.9,0.2,-3,-9,-688,3,-0.53431312115463,-1.45717172746932,103.214590236329,11741,2020.2856,73
68.999,170.54909,170.86406,0.53945952441407,-0.510018700213828,-1.93562123888544,-50.6359504998183,-0.02691488,0.00073624495,-1.0203072,1.0206623,-0.05486819,0.014641589,-0.34738314,0.35199425,0.0567881537330746,52.98,2.00158763497709,18.7680071725231,170.31612,170.27318,0.30648833300782,-0.297514014234743,-2.02801611634111,-68.7768260308948,-0.029101394,-0.006428452,-1.0238961,1.0243298,-0.011639122,0.020141054,-0.48547152,0.48602852,0.0232622278591787,53,2.04968685122731,0.247,11,51.0249889,13.7241347,159.974,-0.01,0.05,-0.2,0.21182346,30.2784897176796,1,0,0,0,0,6626,6589,6035,5806,11.52,11.52,11.52,11.55,2.5,2.48,2.13,1.9,0.2,-3,-9,-688,3,-0.53431312115463,-1.45717172746932,103.214590236329,11741,2020.2856,73
69.04,170.56493,170.90576,0.555298147460945,-0.287714191648475,-1.98656421895363,-50.6134733598598,-0.027190119,-0.0022306703,-1.0164123,1.0167783,-0.0590443,0.00047810748,-0.36829406,0.37299728,0.0590462379168836,53.01,2.00725789224178,18.7761051660324,170.31612,170.27318,0.30648833300782,-0.297514014234743,-2.02801611634111,-68.7768260308948,-0.029101394,-0.006428452,-1.0238961,1.0243298,-0.011639122,0.020141054,-0.48547152,0.48602852,0.0232622278591787,53,2.04968685122731,0.247,11,51.0249889,13.7241347,159.974,-0.01,0.05,-0.2,0.21182346,30.2784897176796,1,0,0,0,0,6626,6589,6035,5806,11.52,11.52,11.52,11.55,2.5,2.48,2.13,1.9,0.2,-3,-9,-688,3,-0.53431312115463,-1.45717172746932,103.214590236329,11741,2020.2856,73
69.08,170.56493,170.90576,0.555298147460945,-0.287714191648475,-1.98656421895363,-50.6134733598598,-0.027190119,-0.0022306703,-1.0164123,1.0167783,-0.0590443,0.00047810748,-0.36829406,0.37299728,0.0590462379168836,53.01,2.00725789224178,18.7761051660324,170.31612,170.27318,0.30648833300782,-0.297514014234743,-2.02801611634111,-68.7768260308948,-0.029101394,-0.006428452,-1.0238961,1.0243298,-0.011639122,0.020141054,-0.48547152,0.48602852,0.0232622278591787,53,2.04968685122731,0.247,11,51.0249887,13.7241345,160.05,-0.11,0.03,-0.27,0.21182346,30.2784897176796,1,0,0,0,0,6626,6589,6035,5806,11.52,11.52,11.52,11.55,2.5,2.48,2.13,1.9,0.2,-3,-9,-688,3,-0.53431312115463,-1.45717172746932,103.214590236329,11741,2020.2856,73
69.119,170.68114,170.92064,0.671509084960945,-0.0732223314151911,-1.79465418568504,-50.5568177573806,-0.02784422,-0.005414027,-1.0171462,1.0175416,-0.055180185,-0.013229656,-0.3902775,0.39438105,0.0567439550822754,53.04,1.79614535762757,18.8112955957863,170.5226,170.32344,0.51297026660157,0.00514073385631298,-1.82537364889493,-68.7446739205112,-0.0249324,-0.002706754,-1.0128971,1.0132076,-0.01579656,0.009120375,-0.49421865,0.49455515,0.0182404096735688,53.02,1.82538087792056,0.247,11,51.0249887,13.7241345,160.05,-0.11,0.03,-0.27,0.21182346,30.2784897176796,1,0,0,0,0,6626,6589,6035,5806,11.52,11.52,11.52,11.55,2.5,2.48,2.13,1.9,0.3,-7,-3,-687,4,-0.309323691829141,-2.04521982481831,103.252272655701,11741,2020.2856,73
69.16,170.68114,170.92064,0.671509084960945,-0.0732223314151911,-1.79465418568504,-50.5568177573806,-0.02784422,-0.005414027,-1.0171462,1.0175416,-0.055180185,-0.013229656,-0.3902775,0.39438105,0.0567439550822754,53.04,1.79614535762757,18.8112955957863,170.5226,170.32344,0.51297026660157,0.00514073385631298,-1.82537364889493,-68.7446739205112,-0.0249324,-0.002706754,-1.0128971,1.0132076,-0.01579656,0.009120375,-0.49421865,0.49455515,0.0182404096735688,53.02,1.82538087792056,0.247,11,51.0249887,13.7241345,160.05,-0.11,0.03,-0.27,0.21182346,30.2784897176796,1,0,0,0,0,6626,6589,6035,5806,11.52,11.52,11.52,11.55,2.5,2.48,2.13,1.9,0.3,-7,-3,-687,4,-0.309323691829141,-2.04521982481831,103.252272655701,11741,2020.2856,73
69.199,170.68114,170.92064,0.671509084960945,-0.0732223314151911,-1.79465418568504,-50.5568177573806,-0.02784422,-0.005414027,-1.0171462,1.0175416,-0.055180185,-0.013229656,-0.3902775,0.39438105,0.0567439550822754,53.04,1.79614535762757,18.8112955957863,170.79471,170.37337,0.785080251953133,0.300145228774109,-1.58927708259786,-68.6731080290466,-0.0251972,-0.0059716804,-1.0068921,1.007225,-0.017566763,0.004701732,-0.50249344,0.5028224,0.0181850879828124,53.07,1.61734239461489,0.247,11,51.0249887,13.7241345,160.05,-0.11,0.03,-0.27,0.21182346,30.2784897176796,1,0,0,0,0,6626,6589,6035,5806,11.52,11.52,11.52,11.55,2.5,2.48,2.13,1.9,0.3,-7,-3,-687,4,-0.309323691829141,-2.04521982481831,103.252272655701,11741,2020.2856,73
69.24,170.5886,170.96652,0.578964529296883,0.259784838828675,-1.61770682104446,-50.4952088137319,-0.02443625,-0.011162006,-1.0089046,1.0092622,-0.05665709,-0.019397637,-0.40712255,0.41150343,0.0598856754949867,53.07,1.63841136971213,18.8292183910564,170.79471,170.37337,0.785080251953133,0.300145228774109,-1.58927708259786,-68.6731080290466,-0.0251972,-0.0059716804,-1.0068921,1.007225,-0.017566763,0.004701732,-0.50249344,0.5028224,0.0181850879828124,53.07,1.61734239461489,0.247,11,51.0249887,13.7241345,160.05,-0.11,0.03,-0.27,0.21182346,30.2784897176796,1,0,0,0,0,6626,6589,6035,5806,11.52,11.52,11.52,11.55,2.5,2.48,2.13,1.9,0.3,-7,-3,-687,4,-0.309323691829141,-2.04521982481831,103.252272655701,11741,2020.2856,73
69.28,170.5886,170.96652,0.578964529296883,0.259784838828675,-1.61770682104446,-50.4952088137319,-0.02443625,-0.011162006,-1.0089046,1.0092622,-0.05665709,-0.019397637,-0.40712255,0.41150343,0.0598856754949867,53.07,1.63841136971213,18.8292183910564,170.79471,170.37337,0.785080251953133,0.300145228774109,-1.58927708259786,-68.6731080290466,-0.0251972,-0.0059716804,-1.0068921,1.007225,-0.017566763,0.004701732,-0.50249344,0.5028224,0.0181850879828124,53.07,1.61734239461489,0.491,11,51.0249889,13.7241339,160.238,0.12,-0.05,-0.35,0.21182346,30.2784897176796,1,0,0,0,0,6626,6589,6035,5806,11.52,11.52,11.52,11.55,2.5,2.48,2.13,1.9,0.3,-7,-3,-687,4,-0.309323691829141,-2.04521982481831,103.252272655701,11741,2020.2856,73
69.319,170.74446,171.00885,0.73483305957032,0.445913877274821,-1.55452120935191,-50.5167074234022,-0.025256727,-0.0054144384,-1.0065696,1.006901,-0.05583165,-0.021577623,-0.41452703,0.41882622,0.0598562172647044,53.09,1.61715190762255,18.8340812354407,170.62027,170.4242,0.610641775390633,0.534115940397424,-1.55269494040437,-68.6706117234142,-0.025785755,-0.0057445457,-1.0125195,1.012864,-0.017024081,0.0025675239,-0.5086244,0.50891566,0.0172166065488455,53.09,1.64190809250185,0.491,11,51.0249889,13.7241339,160.238,0.12,-0.05,-0.35,0.21182346,30.2784897176796,1,0,0,0,0,6626,6589,6035,5806,11.52,11.52,11.52,11.55,2.5,2.48,2.13,1.9,0.3,-7,-3,-687,4,0.266335757256387,-1.61139997088649,103.360963146638,11741,2020.2856,73
69.36,170.74446,171.00885,0.73483305957032,0.445913877274821,-1.55452120935191,-50.5167074234022,-0.025256727,-0.0054144384,-1.0065696,1.006901,-0.05583165,-0.021577623,-0.41452703,0.41882622,0.0598562172647044,53.09,1.61715190762255,18.8340812354407,170.62027,170.4242,0.610641775390633,0.534115940397424,-1.55269494040437,-68.6706117234142,-0.025785755,-0.0057445457,-1.0125195,1.012864,-0.017024081,0.0025675239,-0.5086244,0.50891566,0.0172166065488455,53.09,1.64190809250185,0.491,11,51.0249889,13.7241339,160.238,0.12,-0.05,-0.35,0.21182346,30.2784897176796,1,0,0,0,0,6626,6589,6035,5806,11.52,11.52,11.52,11.55,2.5,2.48,2.13,1.9,0.3,-7,-3,-687,4,0.266335757256387,-1.61139997088649,103.360963146638,11741,2020.2856,73
69.399,170.74446,171.00885,0.73483305957032,0.445913877274821,-1.55452120935191,-50.5167074234022,-0.025256727,-0.0054144384,-1.0065696,1.006901,-0.05583165,-0.021577623,-0.41452703,0.41882622,0.0598562172647044,53.09,1.61715190762255,18.8340812354407,170.69423,170.4754,0.68460112597657,0.486736793551589,-1.62434771930977,-68.6402577197178,-0.026852943,-0.0059134783,-0.9986882,0.99906665,-0.013906382,0.0020901538,-0.50840634,0.5086008,0.0140625817698843,53.11,1.69563098587181,0.491,11,51.0249889,13.7241339,160.238,0.12,-0.05,-0.35,0.21182346,30.2784897176796,1,0,0,0,0,6626,6589,6035,5806,11.52,11.52,11.52,11.55,2.5,2.48,2.13,1.9,0.3,-7,-3,-687,4,0.266335757256387,-1.61139997088649,103.360963146638,11741,2020.2856,73
69.44,170.70479,171.05043,0.69516020800782,0.41624930032089,-1.66909900738639,-50.4652420369563,-0.02837487,-0.0064370167,-1.0021005,1.0025228,-0.054468594,-0.02335711,-0.41189018,0.41613206,0.0592653547571731,53.12,1.72016249605592,18.8399731293522,170.69423,170.4754,0.68460112597657,0.486736793551589,-1.62434771930977,-68.6402577197178,-0.026852943,-0.0059134783,-0.9986882,0.99906665,-0.013906382,0.0020901538,-0.50840634,0.5086008,0.0140625817698843,53.11,1.69563098587181,0.491,11,51.0249889,13.7241339,160.238,0.12,-0.05,-0.35,0.21182346,30.2784897176796,1,0,0,0,0,6456,6677,5960,5850,11.51,11.49,11.48,11.58,2.47,2.49,2.14,1.9,0.5,-5,0,-686,6,0.266335757256387,-1.61139997088649,103.360963146638,11741,2020.2856,73
69.481,170.70479,171.05043,0.69516020800782,0.41624930032089,-1.66909900738639,-50.4652420369563,-0.02837487,-0.0064370167,-1.0021005,1.0025228,-0.054468594,-0.02335711,-0.41189018,0.41613206,0.0592653547571731,53.12,1.72016249605592,18.8399731293522,170.69423,170.4754,0.68460112597657,0.486736793551589,-1.62434771930977,-68.6402577197178,-0.026852943,-0.0059134783,-0.9986882,0.99906665,-0.013906382,0.0020901538,-0.50840634,0.5086008,0.0140625817698843,53.11,1.69563098587181,0.491,11,51.0249883,13.7241333,160.527,-0.05,0.06,-0.39,0.21182346,30.2784897176796,1,0,0,0,0,6456,6677,5960,5850,11.51,11.49,11.48,11.58,2.47,2.49,2.14,1.9,0.5,-5,0,-686,6,0.266335757256387,-1.61139997088649,103.360963146638,11741,2020.2856,73
69.519,170.91086,171.10405,0.901230154296883,0.619733304695106,-1.64423547537986,-50.4237331020185,-0.0277999,-0.0071376152,-1.0005126,1.0009241,-0.05003538,-0.021764189,-0.40670776,0.41035157,0.0545638999468514,53.16,1.7570310561639,18.8531545566741,170.97693,170.52629,0.967300710937508,0.680311956859818,-1.66202118354383,-68.6015267033343,-0.027166586,-0.005428872,-1.001133,1.0015162,-0.008945725,0.0006136501,-0.5028756,0.50295556,0.00896674757991478,53.15,1.79572262951701,0.491,11,51.0249883,13.7241333,160.527,-0.05,0.06,-0.39,0.21182346,30.2784897176796,1,0,0,0,0,6456,6677,5960,5850,11.51,11.49,11.48,11.58,2.47,2.49,2.14,1.9,0.5,-5,0,-686,6,0.497992001731829,-1.61073797878199,103.407299777698,11741,2020.2856,73
69.56,170.91086,171.10405,0.901230154296883,0.619733304695106,-1.64423547537986,-50.4237331020185,-0.0277999,-0.0071376152,-1.0005126,1.0009241,-0.05003538,-0.021764189,-0.40670776,0.41035157,0.0545638999468514,53.16,1.7570310561639,18.8531545566741,170.97693,170.52629,0.967300710937508,0.680311956859818,-1.66202118354383,-68.6015267033343,-0.027166586,-0.005428872,-1.001133,1.0015162,-0.008945725,0.0006136501,-0.5028756,0.50295556,0.00896674757991478,53.15,1.79572262951701,0.491,11,51.0249883,13.7241333,160.527,-0.05,0.06,-0.39,0.21182346,30.2784897176796,1,0,0,0,0,6456,6677,5960,5850,11.51,11.49,11.48,11.58,2.47,2.49,2.14,1.9,0.5,-5,0,-686,6,0.497992001731829,-1.61073797878199,103.407299777698,11741,2020.2856,73
69.599,170.91086,171.10405,0.901230154296883,0.619733304695106,-1.64423547537986,-50.4237331020185,-0.0277999,-0.0071376152,-1.0005126,1.0009241,-0.05003538,-0.021764189,-0.40670776,0.41035157,0.0545638999468514,53.16,1.7570310561639,18.8531545566741,170.87914,170.57709,0.869507131835945,0.722959348307948,-1.49096715490252,-68.5278944291072,-0.024288286,-0.0057469998,-0.9955115,0.9958243,-0.0026027474,0.0009475489,-0.49671975,0.49672747,0.00276986328204529,53.19,1.656858943593,0.491,11,51.0249883,13.7241333,160.527,-0.05,0.06,-0.39,0.21182346,30.2784897176796,1,0,0,0,0,6456,6677,5960,5850,11.51,11.49,11.48,11.58,2.47,2.49,2.14,1.9,0.5,-5,0,-686,6,0.497992001731829,-1.61073797878199,103.407299777698,11741,2020.2856,73
69.64,170.79193,171.14754,0.782303152343758,0.619832730399877,-1.47047124518127,-50.3666023039697,-0.026170153,-0.0069756173,-0.9993299,0.9996969,-0.046046697,-0.019587511,-0.40381652,0.4069051,0.0500396743404972,53.19,1.59566318968193,18.8643202917989,170.87914,170.57709,0.869507131835945,0.722959348307948,-1.49096715490252,-68.5278944291072,-0.024288286,-0.0057469998,-0.9955115,0.9958243,-0.0026027474,0.0009475489,-0.49671975,0.49672747,0.00276986328204529,53.19,1.656858943593,0.491,11,51.0249883,13.7241333,160.527,-0.05,0.06,-0.39,0.21182346,30.2784897176796,1,0,0,0,0,6456,6677,5960,5850,11.51,11.49,11.48,11.58,2.47,2.49,2.14,1.9,0.5,-5,0,-686,6,0.497992001731829,-1.61073797878199,103.407299777698,11774,2020.2856,73
69.68,170.79193,171.14754,0.782303152343758,0.619832730399877,-1.47047124518127,-50.3666023039697,-0.026170153,-0.0069756173,-0.9993299,0.9996969,-0.046046697,-0.019587511,-0.40381652,0.4069051,0.0500396743404972,53.19,1.59566318968193,18.8643202917989,170.87914,170.57709,0.869507131835945,0.722959348307948,-1.49096715490252,-68.5278944291072,-0.024288286,-0.0057469998,-0.9955115,0.9958243,-0.0026027474,0.0009475489,-0.49671975,0.49672747,0.00276986328204529,53.19,1.656858943593,0.491,11,51.0249882,13.724133,160.651,-0.02,-0.01,-0.4,0.21182346,30.2784897176796,1,0,0,0,0,6456,6677,5960,5850,11.51,11.49,11.48,11.58,2.47,2.49,2.14,1.9,0.5,-5,0,-686,6,0.497992001731829,-1.61073797878199,103.407299777698,11774,2020.2856,73
69.719,171.05087,171.19092,1.04124480273438,0.498106482224931,-1.27025929060565,-50.3228727354108,-0.023795709,-0.0035483623,-1.0086313,1.0089183,-0.043586355,-0.015098887,-0.40905106,0.41164368,0.0461275060954653,53.21,1.36437024915747,18.8883579308148,171.27547,170.62674,1.26583891894532,0.603100966846497,-1.26024295311186,-68.5030175044568,-0.02568432,-0.0044167554,-1.0098733,1.0102094,0.003666382,0.0040649944,-0.4964064,0.4964366,0.00547416999307371,53.21,1.39703561704202,0.491,11,51.0249882,13.724133,160.651,-0.02,-0.01,-0.4,0.21182346,30.2784897176796,1,0,0,0,0,6456,6677,5960,5850,11.51,11.49,11.48,11.58,2.47,2.49,2.14,1.9,0.6,-1,2,-684,7,0.732347516474589,-1.51266140346842,103.523174387496,11774,2020.2856,73
69.76,171.05087,171.19092,1.04124480273438,0.498106482224931,-1.27025929060565,-50.3228727354108,-0.023795709,-0.0035483623,-1.0086313,1.0089183,-0.043586355,-0.015098887,-0.40905106,0.41164368,0.0461275060954653,53.21,1.36437024915747,18.8883579308148,171.27547,170.62674,1.26583891894532,0.603100966846497,-1.26024295311186,-68.5030175044568,-0.02568432,-0.0044167554,-1.0098733,1.0102094,0.003666382,0.0040649944,-0.4964064,0.4964366,0.00547416999307371,53.21,1.39703561704202,0.491,11,51.0249882,13.724133,160.651,-0.02,-0.01,-0.4,0.21182346,30.2784897176796,1,0,0,0,0,6456,6677,5960,5850,11.51,11.49,11.48,11.58,2.47,2.49,2.14,1.9,0.6,-1,2,-684,7,0.732347516474589,-1.51266140346842,103.523174387496,11774,2020.2856,73
69.799,171.05087,171.19092,1.04124480273438,0.498106482224931,-1.27025929060565,-50.3228727354108,-0.023795709,-0.0035483623,-1.0086313,1.0089183,-0.043586355,-0.015098887,-0.40905106,0.41164368,0.0461275060954653,53.21,1.36437024915747,18.8883579308148,171.06143,170.67706,1.05180388476563,0.564631114726544,-1.33260707530592,-68.5580313989803,-0.026651386,-0.003970296,-1.0193474,1.0197035,0.009855309,0.008385551,-0.50736755,0.50753254,0.0129400379120739,53.24,1.44721112385189,0.76,11,51.0249882,13.724133,160.651,-0.02,-0.01,-0.4,0.21182346,30.2784897176796,1,0,0,0,0,6456,6677,5960,5850,11.51,11.49,11.48,11.58,2.47,2.49,2.14,1.9,0.6,-1,2,-684,7,0.732347516474589,-1.51266140346842,103.523174387496,11774,2020.2856,73
69.84,170.9214,171.23563,0.91177397753907,0.427100804957004,-1.34533474409115,-50.3979580266911,-0.027571823,-0.0033158707,-1.0152991,1.0156788,-0.04040742,-0.00981769,-0.4230364,0.4250752,0.0415830082776349,53.25,1.41145549516993,18.9134911504274,171.06143,170.67706,1.05180388476563,0.564631114726544,-1.33260707530592,-68.5580313989803,-0.026651386,-0.003970296,-1.0193474,1.0197035,0.009855309,0.008385551,-0.50736755,0.50753254,0.0129400379120739,53.24,1.44721112385189,0.76,11,51.0249882,13.724133,160.651,-0.02,-0.01,-0.4,0.21182346,30.2784897176796,1,0,0,0,0,6456,6677,5960,5850,11.51,11.49,11.48,11.58,2.47,2.49,2.14,1.9,0.6,-1,2,-684,7,0.732347516474589,-1.51266140346842,103.523174387496,11774,2020.2856,73
69.88,170.9214,171.23563,0.91177397753907,0.427100804957004,-1.34533474409115,-50.3979580266911,-0.027571823,-0.0033158707,-1.0152991,1.0156788,-0.04040742,-0.00981769,-0.4230364,0.4250752,0.0415830082776349,53.25,1.41145549516993,18.9134911504274,171.06143,170.67706,1.05180388476563,0.564631114726544,-1.33260707530592,-68.5580313989803,-0.026651386,-0.003970296,-1.0193474,1.0197035,0.009855309,0.008385551,-0.50736755,0.50753254,0.0129400379120739,53.24,1.44721112385189,0.76,11,51.0249882,13.7241328,160.758,-0.04,0.03,-0.44,0.21182346,30.2784897176796,1,0,0,0,0,6456,6677,5960,5850,11.51,11.49,11.48,11.58,2.47,2.49,2.14,1.9,0.6,-1,2,-684,7,0.732347516474589,-1.51266140346842,103.523174387496,11774,2020.2856,73
69.919,171.05086,171.28993,1.04122954394532,0.182485909802557,-1.36136520066061,-50.4742280052458,-0.029944248,-0.00467836,-1.0133438,1.0137969,-0.040577725,-0.0072538974,-0.4357875,0.4377327,0.0412209994565953,53.27,1.37353240109634,19.0043919338578,171.17506,170.72821,1.16543608691407,0.314577297197419,-1.37975681869926,-68.6343835210289,-0.02814534,-0.0048644245,-1.0130678,1.0134704,0.013068355,0.011270051,-0.515709,0.5159976,0.0172567645565757,53.26,1.4151364814142,0.76,11,51.0249882,13.7241328,160.758,-0.04,0.03,-0.44,0.21182346,30.2784897176796,1,0,0,0,0,6456,6677,5960,5850,11.51,11.49,11.48,11.58,2.47,2.49,2.14,1.9,0.6,-1,2,-684,7,0.602062227165663,-1.34440007012907,103.542516415796,11774,2020.2856,73
69.96,171.05086,171.28993,1.04122954394532,0.182485909802557,-1.36136520066061,-50.4742280052458,-0.029944248,-0.00467836,-1.0133438,1.0137969,-0.040577725,-0.0072538974,-0.4357875,0.4377327,0.0412209994565953,53.27,1.37353240109634,19.0043919338578,171.17506,170.72821,1.16543608691407,0.314577297197419,-1.37975681869926,-68.6343835210289,-0.02814534,-0.0048644245,-1.0130678,1.0134704,0.013068355,0.011270051,-0.515709,0.5159976,0.0172567645565757,53.26,1.4151364814142,0.76,11,51.0249882,13.7241328,160.758,-0.04,0.03,-0.44,0.21182346,30.2784897176796,1,0,0,0,0,6457,6546,5892,6046,11.51,11.52,11.55,11.57,2.41,2.49,2.09,1.92,0.6,-1,2,-684,7,0.602062227165663,-1.34440007012907,103.542516415796,11774,2020.2856,73
69.999,171.05086,171.28993,1.04122954394532,0.182485909802557,-1.36136520066061,-50.4742280052458,-0.029944248,-0.00467836,-1.0133438,1.0137969,-0.040577725,-0.0072538974,-0.4357875,0.4377327,0.0412209994565953,53.27,1.37353240109634,19.0043919338578,171.09842,170.77989,1.08879118945313,-0.0152193545197559,-1.23035440245083,-68.6953943148031,-0.028943263,-0.0062994296,-1.0056659,1.006102,0.0096797785,0.0151291285,-0.52095205,0.5212616,0.0179607525487128,53.29,1.23044847190036,0.76,11,51.0249882,13.7241328,160.758,-0.04,0.03,-0.44,0.21182346,30.2784897176796,1,0,0,0,0,6457,6546,5892,6046,11.51,11.52,11.55,11.57,2.41,2.49,2.09,1.92,0.6,-1,2,-684,7,0.602062227165663,-1.34440007012907,103.542516415796,11774,2020.2856,73
70.04,170.98744,171.33801,0.97781401660157,-0.131322208568459,-1.28793043015111,-50.5127507677946,-0.028470334,-0.0029182574,-1.0039952,1.004403,-0.048049502,-0.0053373715,-0.4456436,0.44825825,0.0483450332900029,53.3,1.29460368438254,19.0426096879885,171.09842,170.77989,1.08879118945313,-0.0152193545197559,-1.23035440245083,-68.6953943148031,-0.028943263,-0.0062994296,-1.0056659,1.006102,0.0096797785,0.0151291285,-0.52095205,0.5212616,0.0179607525487128,53.29,1.23044847190036,0.76,11,51.0249882,13.7241328,160.758,-0.04,0.03,-0.44,0.21182346,30.2784897176796,1,0,0,0,0,6457,6546,5892,6046,11.51,11.52,11.55,11.57,2.41,2.49,2.09,1.92,0.8,-1,-3,-686,9,0.602062227165663,-1.34440007012907,103.542516415796,11774,2020.2856,73
70.08,170.98744,171.33801,0.97781401660157,-0.131322208568459,-1.28793043015111,-50.5127507677946,-0.028470334,-0.0029182574,-1.0039952,1.004403,-0.048049502,-0.0053373715,-0.4456436,0.44825825,0.0483450332900029,53.3,1.29460368438254,19.0426096879885,171.09842,170.77989,1.08879118945313,-0.0152193545197559,-1.23035440245083,-68.6953943148031,-0.028943263,-0.0062994296,-1.0056659,1.006102,0.0096797785,0.0151291285,-0.52095205,0.5212616,0.0179607525487128,53.29,1.23044847190036,0.76,11,51.0249885,13.7241327,160.864,0.09,-0.02,-0.45,0.21182346,30.2784897176796,1,0,0,0,0,6457,6546,5892,6046,11.51,11.52,11.55,11.57,2.41,2.49,2.09,1.92,0.8,-1,-3,-686,9,0.602062227165663,-1.34440007012907,103.542516415796,11774,2020.2856,73
70.119,171.13805,171.38669,1.12841826464845,-0.0704269789479633,-1.57868559769803,-50.5136187170424,-0.02792576,-0.0073304866,-1.0057868,1.0062011,-0.057186976,-0.00647486,-0.45477983,0.45840698,0.0575523577477888,53.33,1.58025414313793,19.0643469520527,171.17769,170.83214,1.16806059863282,-0.007275280416063,-1.45084008737918,-68.6877744609482,-0.029256094,-0.006859035,-1.0087651,1.0092126,0.0014782998,0.017414873,-0.5251593,0.52545005,0.0174775050157555,53.33,1.45085831272877,0.76,12,51.0249885,13.7241327,160.864,0.09,-0.02,-0.45,0.21182346,30.2784897176796,1,0,0,0,0,6457,6546,5892,6046,11.51,11.52,11.55,11.57,2.41,2.49,2.09,1.92,0.8,-1,-3,-686,9,0.0637222721759608,-1.23745582861757,103.421905082285,11774,2020.2856,73
70.16,171.13805,171.38669,1.12841826464845,-0.0704269789479633,-1.57868559769803,-50.5136187170424,-0.02792576,-0.0073304866,-1.0057868,1.0062011,-0.057186976,-0.00647486,-0.45477983,0.45840698,0.0575523577477888,53.33,1.58025414313793,19.0643469520527,171.17769,170.83214,1.16806059863282,-0.007275280416063,-1.45084008737918,-68.6877744609482,-0.029256094,-0.006859035,-1.0087651,1.0092126,0.0014782998,0.017414873,-0.5251593,0.52545005,0.0174775050157555,53.33,1.45085831272877,0.76,12,51.0249885,13.7241327,160.864,0.09,-0.02,-0.45,0.21182346,30.2784897176796,1,0,0,0,0,6457,6546,5892,6046,11.51,11.52,11.55,11.57,2.41,2.49,2.09,1.92,0.8,-1,-3,-686,9,0.0637222721759608,-1.23745582861757,103.421905082285,11774,2020.2856,73
70.199,171.13805,171.38669,1.12841826464845,-0.0704269789479633,-1.57868559769803,-50.5136187170424,-0.02792576,-0.0073304866,-1.0057868,1.0062011,-0.057186976,-0.00647486,-0.45477983,0.45840698,0.0575523577477888,53.33,1.58025414313793,19.0643469520527,171.43925,170.88469,1.4296267607422,0.0713938604875202,-1.89407428336773,-68.6836658988612,-0.032305878,-0.012717308,-1.0059074,1.0065064,-0.0048156856,0.014216411,-0.5286972,0.5289102,0.0150099025762263,53.37,1.89541738180005,0.76,12,51.0249885,13.7241327,160.864,0.09,-0.02,-0.45,0.21182346,30.2784897176796,1,0,0,0,0,6457,6546,5892,6046,11.51,11.52,11.55,11.57,2.41,2.49,2.09,1.92,0.8,-1,-3,-686,9,0.0637222721759608,-1.23745582861757,103.421905082285,11774,2020.2856,73
70.24,171.48152,171.43608,1.47189360644532,-0.0452262723855101,-1.964206067123,-50.5202174037223,-0.03122352,-0.010380438,-1.0032516,1.003791,-0.06247966,-0.013125442,-0.46068713,0.46508992,0.0638434444705862,53.36,1.9647258553045,19.0859088833071,171.43925,170.88469,1.4296267607422,0.0713938604875202,-1.89407428336773,-68.6836658988612,-0.032305878,-0.012717308,-1.0059074,1.0065064,-0.0048156856,0.014216411,-0.5286972,0.5289102,0.0150099025762263,53.37,1.89541738180005,0.76,12,51.0249885,13.7241327,160.864,0.09,-0.02,-0.45,0.21182346,30.2784897176796,1,0,0,0,0,6457,6546,5892,6046,11.51,11.52,11.55,11.57,2.41,2.49,2.09,1.92,0.8,-1,-3,-686,9,0.0637222721759608,-1.23745582861757,103.421905082285,11774,2020.2856,73
70.28,171.48152,171.43608,1.47189360644532,-0.0452262723855101,-1.964206067123,-50.5202174037223,-0.03122352,-0.010380438,-1.0032516,1.003791,-0.06247966,-0.013125442,-0.46068713,0.46508992,0.0638434444705862,53.36,1.9647258553045,19.0859088833071,171.43925,170.88469,1.4296267607422,0.0713938604875202,-1.89407428336773,-68.6836658988612,-0.032305878,-0.012717308,-1.0059074,1.0065064,-0.0048156856,0.014216411,-0.5286972,0.5289102,0.0150099025762263,53.37,1.89541738180005,1.034,12,51.024988,13.7241329,161.092,-0.07,0.05,-0.48,0.21182346,30.2784897176796,1,0,0,0,0,6457,6546,5892,6046,11.51,11.52,11.55,11.57,2.41,2.49,2.09,1.92,0.8,-1,-3,-686,9,0.0637222721759608,-1.23745582861757,103.421905082285,11774,2020.2856,73
70.319,171.46564,171.48645,1.45600920703126,-0.0736593404745035,-1.92039366451213,-50.5607825040788,-0.032619283,-0.010006958,-0.9951022,0.99568695,-0.06759236,-0.02275282,-0.458395,0.46390992,0.0713191295604653,53.4,1.92180368471055,19.0939463665111,171.40488,170.93706,1.39524870898438,0.0295844252174725,-1.95047846993626,-68.7263487085544,-0.0317045,-0.009664411,-0.99915195,0.99970156,-0.010568061,0.0068128626,-0.52324325,0.5233943,0.0125737427408152,53.39,1.9507024755886,1.034,12,51.024988,13.7241329,161.092,-0.07,0.05,-0.48,0.21182346,30.2784897176796,1,0,0,0,0,6457,6546,5892,6046,11.51,11.52,11.55,11.57,2.41,2.49,2.09,1.92,1,-8,-3,-687,10,0.115450482628368,-1.87236479523455,103.437376721251,11774,2020.2856,73
70.358,171.46564,171.48645,1.45600920703126,-0.0736593404745035,-1.92039366451213,-50.5607825040788,-0.032619283,-0.010006958,-0.9951022,0.99568695,-0.06759236,-0.02275282,-0.458395,0.46390992,0.0713191295604653,53.4,1.92180368471055,19.0939463665111,171.40488,170.93706,1.39524870898438,0.0295844252174725,-1.95047846993626,-68.7263487085544,-0.0317045,-0.009664411,-0.99915195,0.99970156,-0.010568061,0.0068128626,-0.52324325,0.5233943,0.0125737427408152,53.39,1.9507024755886,1.034,12,51.024988,13.7241329,161.092,-0.07,0.05,-0.48,0.21182346,30.2784897176796,1,0,0,0,0,6457,6546,5892,6046,11.51,11.52,11.55,11.57,2.41,2.49,2.09,1.92,1,-8,-3,-687,10,0.115450482628368,-1.87236479523455,103.437376721251,11774,2020.2856,73
70.399,171.46564,171.48645,1.45600920703126,-0.0736593404745035,-1.92039366451213,-50.5607825040788,-0.032619283,-0.010006958,-0.9951022,0.99568695,-0.06759236,-0.02275282,-0.458395,0.46390992,0.0713191295604653,53.4,1.92180368471055,19.0939463665111,171.38104,170.98851,1.37141448046876,0.0714435412233177,-1.87403272672773,-68.6900650520472,-0.026954088,-0.008741458,-0.928745,0.92917717,-0.016344795,-0.00026294676,-0.4957746,0.496044,0.0163469102876162,53.44,1.87539210926354,1.034,12,51.024988,13.7241329,161.092,-0.07,0.05,-0.48,0.21182346,30.2784897176796,1,0,0,0,0,6457,6546,5892,6046,11.51,11.52,11.55,11.57,2.41,2.49,2.09,1.92,1,-8,-3,-687,10,0.115450482628368,-1.87236479523455,103.437376721251,11774,2020.2856,73
70.441,171.38895,171.54436,1.37931853320313,-0.0135747515279645,-1.87479037973426,-50.4382005036724,-0.024638236,-0.0011161249,-0.90012383,0.9004617,-0.07272264,-0.032949008,-0.42271975,0.43019322,0.0798387117765215,53.44,1.87483945416521,19.1051830587332,171.38104,170.98851,1.37141448046876,0.0714435412233177,-1.87403272672773,-68.6900650520472,-0.026954088,-0.008741458,-0.928745,0.92917717,-0.016344795,-0.00026294676,-0.4957746,0.496044,0.0163469102876162,53.44,1.87539210926354,1.034,12,51.024988,13.7241329,161.092,-0.07,0.05,-0.48,0.21182346,30.2784897176796,1,0,0,0,0,6162,6262,5811,5597,11.63,11.63,11.64,11.7,2.18,2.13,1.9,1.68,1,-8,-3,-687,10,0.115450482628368,-1.87236479523455,103.437376721251,11774,2020.2856,73
70.48,171.38895,171.54436,1.37931853320313,-0.0135747515279645,-1.87479037973426,-50.4382005036724,-0.024638236,-0.0011161249,-0.90012383,0.9004617,-0.07272264,-0.032949008,-0.42271975,0.43019322,0.0798387117765215,53.44,1.87483945416521,19.1051830587332,171.38104,170.98851,1.37141448046876,0.0714435412233177,-1.87403272672773,-68.6900650520472,-0.026954088,-0.008741458,-0.928745,0.92917717,-0.016344795,-0.00026294676,-0.4957746,0.496044,0.0163469102876162,53.44,1.87539210926354,1.034,12,51.024988,13.724133,161.203,-0.12,0.04,-0.52,0.21182346,30.2784897176796,1,0,0,0,0,6162,6262,5811,5597,11.63,11.63,11.64,11.7,2.18,2.13,1.9,1.68,1,-8,-3,-687,10,0.115450482628368,-1.87236479523455,103.437376721251,11774,2020.2856,73
70.519,171.19864,171.58366,1.18901091601563,0.201082959077438,-2.06759551161711,-50.3075042159723,-0.025378019,-0.013755968,-0.8544312,0.8549187,-0.074392624,-0.042459898,-0.2927543,0.30502817,0.0856569055036718,53.48,2.07733372247508,19.1224142988176,171.50781,171.03253,1.49818450000001,0.265086824526432,-2.03276842243896,-68.4569485914289,-0.023660578,-0.012097778,-0.8527449,0.85315883,-0.020707037,-0.008214315,-0.37265965,0.37332487,0.0222768130134693,53.48,2.04995137039283,1.034,11,51.024988,13.724133,161.203,-0.12,0.04,-0.52,0.21182346,30.2784897176796,1,0,0,0,0,6162,6262,5811,5597,11.63,11.63,11.64,11.7,2.18,2.13,1.9,1.68,1,-8,-3,-687,10,0.0908330556407351,-1.91715777375632,103.433277960786,11774,2020.2856,73
70.56,171.19864,171.58366,1.18901091601563,0.201082959077438,-2.06759551161711,-50.3075042159723,-0.025378019,-0.013755968,-0.8544312,0.8549187,-0.074392624,-0.042459898,-0.2927543,0.30502817,0.0856569055036718,53.48,2.07733372247508,19.1224142988176,171.50781,171.03253,1.49818450000001,0.265086824526432,-2.03276842243896,-68.4569485914289,-0.023660578,-0.012097778,-0.8527449,0.85315883,-0.020707037,-0.008214315,-0.37265965,0.37332487,0.0222768130134693,53.48,2.04995137039283,1.034,11,51.024988,13.724133,161.203,-0.12,0.04,-0.52,0.21182346,30.2784897176796,1,0,0,0,0,6162,6262,5811,5597,11.63,11.63,11.64,11.7,2.18,2.13,1.9,1.68,1,-8,-3,-687,10,0.0908330556407351,-1.91715777375632,103.433277960786,11774,2020.2856,73
70.599,171.19864,171.58366,1.18901091601563,0.201082959077438,-2.06759551161711,-50.3075042159723,-0.025378019,-0.013755968,-0.8544312,0.8549187,-0.074392624,-0.042459898,-0.2927543,0.30502817,0.0856569055036718,53.48,2.07733372247508,19.1224142988176,171.41261,171.06236,1.40298491503907,0.764330486250919,-2.07417377718906,-68.5387252501461,-0.02585705,-0.011312169,-0.85361874,0.8540852,-0.020428348,-0.013823764,-0.22266862,0.22403064,0.0246660472649318,53.5,2.21028909227001,1.034,11,51.024988,13.724133,161.203,-0.12,0.04,-0.52,0.21182346,30.2784897176796,1,0,0,0,0,6162,6262,5811,5597,11.63,11.63,11.64,11.7,2.18,2.13,1.9,1.68,1,-8,-3,-687,10,0.0908330556407351,-1.91715777375632,103.433277960786,11774,2020.2856,73
70.64,171.49979,171.6102,1.49015837695313,0.724403038442441,-2.09429505514398,-50.3692178097364,-0.024838153,-0.012130716,-0.8583946,0.8588396,-0.07253724,-0.047733948,-0.14758772,0.1712376,0.0868342172140823,53.5,2.21582882731046,19.1396087557165,171.41261,171.06236,1.40298491503907,0.764330486250919,-2.07417377718906,-68.5387252501461,-0.02585705,-0.011312169,-0.85361874,0.8540852,-0.020428348,-0.013823764,-0.22266862,0.22403064,0.0246660472649318,53.5,2.21028909227001,1.034,11,51.024988,13.724133,161.203,-0.12,0.04,-0.52,0.21182346,30.2784897176796,1,0,0,0,0,6162,6262,5811,5597,11.63,11.63,11.64,11.7,2.18,2.13,1.9,1.68,1.1,-9,3,-685,12,0.0908330556407351,-1.91715777375632,103.433277960786,11574,1925.011,73
70.68,171.49979,171.6102,1.49015837695313,0.724403038442441,-2.09429505514398,-50.3692178097364,-0.024838153,-0.012130716,-0.8583946,0.8588396,-0.07253724,-0.047733948,-0.14758772,0.1712376,0.0868342172140823,53.5,2.21582882731046,19.1396087557165,171.41261,171.06236,1.40298491503907,0.764330486250919,-2.07417377718906,-68.5387252501461,-0.02585705,-0.011312169,-0.85361874,0.8540852,-0.020428348,-0.013823764,-0.22266862,0.22403064,0.0246660472649318,53.5,2.21028909227001,1.034,11,51.0249883,13.724133,161.277,0.14,-0.05,-0.48,0.21182346,30.2784897176796,1,0,0,0,0,6162,6262,5811,5597,11.63,11.63,11.64,11.7,2.18,2.13,1.9,1.68,1.1,-9,3,-685,12,0.0908330556407351,-1.91715777375632,103.433277960786,11574,1925.011,73
70.719,171.22493,171.6224,1.21530180957032,0.824866243039897,-1.80996285879025,-50.2426996387714,-0.026281938,-0.008526846,-0.8991496,0.89957404,-0.065891996,-0.049456786,-0.02360022,0.08570122,0.0823876721254315,53.52,1.98883510651652,19.1623906184622,171.4733,171.07768,1.46366911914063,0.956145194118302,-1.87949670273254,-68.4329163799122,-0.026803158,-0.012346588,-0.89229834,0.8927862,-0.0140351765,-0.018689219,-0.090128794,0.09311,0.0233724854670358,53.52,2.10841425648471,1.034,12,51.0249883,13.724133,161.277,0.14,-0.05,-0.48,0.21182346,30.2784897176796,1,0,0,0,0,6162,6262,5811,5597,11.63,11.63,11.64,11.7,2.18,2.13,1.9,1.68,1.1,-9,3,-685,12,0.723572234114622,-2.12011109356926,103.605139250022,11574,1925.011,73
70.76,171.22493,171.6224,1.21530180957032,0.824866243039897,-1.80996285879025,-50.2426996387714,-0.026281938,-0.008526846,-0.8991496,0.89957404,-0.065891996,-0.049456786,-0.02360022,0.08570122,0.0823876721254315,53.52,1.98883510651652,19.1623906184622,171.4733,171.07768,1.46366911914063,0.956145194118302,-1.87949670273254,-68.4329163799122,-0.026803158,-0.012346588,-0.89229834,0.8927862,-0.0140351765,-0.018689219,-0.090128794,0.09311,0.0233724854670358,53.52,2.10841425648471,1.034,12,51.0249883,13.724133,161.277,0.14,-0.05,-0.48,0.21182346,30.2784897176796,1,0,0,0,0,6162,6262,5811,5597,11.63,11.63,11.64,11.7,2.18,2.13,1.9,1.68,1.1,-9,3,-685,12,0.723572234114622,-2.12011109356926,103.605139250022,11574,1925.011,73
70.799,171.22493,171.6224,1.21530180957032,0.824866243039897,-1.80996285879025,-50.2426996387714,-0.026281938,-0.008526846,-0.8991496,0.89957404,-0.065891996,-0.049456786,-0.02360022,0.08570122,0.0823876721254315,53.52,1.98883510651652,19.1623906184622,171.58687,171.08208,1.57724028613282,0.679379862767779,-1.488760470076,-68.3410262721864,-0.02461302,-0.0041892007,-0.9320807,0.932415,-0.007387726,-0.019683719,-0.0019225008,0.02111216,0.0210244450332156,53.53,1.63632191252664,1.201,12,51.0249883,13.724133,161.277,0.14,-0.05,-0.48,0.21182346,30.2784897176796,1,0,0,0,0,6162,6262,5811,5597,11.63,11.63,11.64,11.7,2.18,2.13,1.9,1.68,1.1,-9,3,-685,12,0.723572234114622,-2.12011109356926,103.605139250022,11574,1925.011,73
70.84,171.56042,171.62935,1.55079680468751,0.569575329769537,-1.44823867884822,-50.1600853062427,-0.026352797,-0.009107927,-0.94396114,0.94437283,-0.061855733,-0.046861485,0.05985257,0.09800235,0.0776023878810012,53.54,1.55612822901227,19.2165580906743,171.58687,171.08208,1.57724028613282,0.679379862767779,-1.488760470076,-68.3410262721864,-0.02461302,-0.0041892007,-0.9320807,0.932415,-0.007387726,-0.019683719,-0.0019225008,0.02111216,0.0210244450332156,53.53,1.63632191252664,1.201,12,51.0249883,13.724133,161.277,0.14,-0.05,-0.48,0.21182346,30.2784897176796,1,0,0,0,0,6162,6262,5811,5597,11.63,11.63,11.64,11.7,2.18,2.13,1.9,1.68,1.1,-9,3,-685,12,0.723572234114622,-2.12011109356926,103.605139250022,11574,1925.011,73
70.88,171.56042,171.62935,1.55079680468751,0.569575329769537,-1.44823867884822,-50.1600853062427,-0.026352797,-0.009107927,-0.94396114,0.94437283,-0.061855733,-0.046861485,0.05985257,0.09800235,0.0776023878810012,53.54,1.55612822901227,19.2165580906743,171.58687,171.08208,1.57724028613282,0.679379862767779,-1.488760470076,-68.3410262721864,-0.02461302,-0.0041892007,-0.9320807,0.932415,-0.007387726,-0.019683719,-0.0019225008,0.02111216,0.0210244450332156,53.53,1.63632191252664,1.201,12,51.0249882,13.7241332,161.15,-0.02,0,-0.32,0.21182346,30.2784897176796,1,0,0,0,0,6162,6262,5811,5597,11.63,11.63,11.64,11.7,2.18,2.13,1.9,1.68,1.1,-9,3,-685,12,0.723572234114622,-2.12011109356926,103.605139250022,11574,1925.011,73
70.919,171.45204,171.62589,1.44241362597657,0.343163590688172,-1.31913622281411,-50.1904898384548,-0.027889594,-0.01386541,-0.97777724,0.97827315,-0.064633384,-0.045995682,0.10366866,0.13053837,0.0793289166813542,53.58,1.36301079158691,19.2264936424579,171.48112,171.0797,1.4714968779297,0.47107038768496,-1.3552765706132,-68.3336386085527,-0.02802933,-0.012375751,-0.97114295,0.97162616,-0.0066768373,-0.018800115,0.046496384,0.05059583,0.0199505516012776,53.57,1.43475307851783,1.201,12,51.0249882,13.7241332,161.15,-0.02,0,-0.32,0.21182346,30.2784897176796,1,0,0,0,0,6162,6262,5811,5597,11.63,11.63,11.64,11.7,2.18,2.13,1.9,1.68,1.1,-2,0,-683,12,0.750043032716312,-1.58504232292854,103.781670467936,11574,1925.011,73
70.954,171.45204,171.62589,1.44241362597657,0.343163590688172,-1.31913622281411,-50.1904898384548,-0.027889594,-0.01386541,-0.97777724,0.97827315,-0.064633384,-0.045995682,0.10366866,0.13053837,0.0793289166813542,53.58,1.36301079158691,19.2264936424579,171.48112,171.0797,1.4714968779297,0.47107038768496,-1.3552765706132,-68.3336386085527,-0.02802933,-0.012375751,-0.97114295,0.97162616,-0.0066768373,-0.018800115,0.046496384,0.05059583,0.0199505516012776,53.57,1.43475307851783,1.201,12,51.0249882,13.7241332,161.15,-0.02,0,-0.32,0.21182346,30.2784897176796,1,0,0,0,0,6229,6492,5857,5635,11.51,11.51,11.49,11.58,2.12,2.35,1.96,1.73,1.1,-2,0,-683,12,0.750043032716312,-1.58504232292854,103.781670467936,11574,1925.011,73
70.999,171.45204,171.62589,1.44241362597657,0.343163590688172,-1.31913622281411,-50.1904898384548,-0.027889594,-0.01386541,-0.97777724,0.97827315,-0.064633384,-0.045995682,0.10366866,0.13053837,0.0793289166813542,53.58,1.36301079158691,19.2264936424579,171.51808,171.07385,1.50845366503907,0.254647659146918,-1.02927086569712,-68.4368157649937,-0.02692156,-0.018496491,-1.001297,1.0018296,-0.012196223,-0.017679907,0.06481234,0.06827859,0.0214785234653861,53.61,1.06029054890664,1.201,12,51.0249882,13.7241332,161.15,-0.02,0,-0.32,0.21182346,30.2784897176796,1,0,0,0,0,6229,6492,5857,5635,11.51,11.51,11.49,11.58,2.12,2.35,1.96,1.73,1.1,-2,0,-683,12,0.750043032716312,-1.58504232292854,103.781670467936,11574,1925.011,73
71.041,171.37802,171.61842,1.36839324023438,0.0880069622703433,-0.971794060219511,-50.3053853171821,-0.025436733,-0.013715164,-0.99861455,0.9990326,-0.07359361,-0.045548882,0.114884704,0.14383747,0.0865489464651562,53.6,0.9757694146081,19.236651205607,171.51808,171.07385,1.50845366503907,0.254647659146918,-1.02927086569712,-68.4368157649937,-0.02692156,-0.018496491,-1.001297,1.0018296,-0.012196223,-0.017679907,0.06481234,0.06827859,0.0214785234653861,53.61,1.06029054890664,1.201,12,51.0249882,13.7241332,161.15,-0.02,0,-0.32,0.21182346,30.2784897176796,1,0,0,0,0,6229,6492,5857,5635,11.51,11.51,11.49,11.58,2.12,2.35,1.96,1.73,1.1,-2,0,-683,12,0.750043032716312,-1.58504232292854,103.781670467936,11574,1925.011,73
71.08,171.37802,171.61842,1.36839324023438,0.0880069622703433,-0.971794060219511,-50.3053853171821,-0.025436733,-0.013715164,-0.99861455,0.9990326,-0.07359361,-0.045548882,0.114884704,0.14383747,0.0865489464651562,53.6,0.9757694146081,19.236651205607,171.51808,171.07385,1.50845366503907,0.254647659146918,-1.02927086569712,-68.4368157649937,-0.02692156,-0.018496491,-1.001297,1.0018296,-0.012196223,-0.017679907,0.06481234,0.06827859,0.0214785234653861,53.61,1.06029054890664,1.201,12,51.0249883,13.7241333,161.074,0,-0.01,-0.23,0.21182346,30.2784897176796,1,0,0,0,0,6229,6492,5857,5635,11.51,11.51,11.49,11.58,2.12,2.35,1.96,1.73,1.1,-2,0,-683,12,0.750043032716312,-1.58504232292854,103.781670467936,11574,1925.011,73
71.119,171.51035,171.6103,1.50071745898438,0.818273849613546,-0.771830386130117,-50.4546061317454,-0.021909606,-0.016783684,-1.0138992,1.0142748,-0.083918326,-0.039746325,0.10395971,0.13939038,0.0928550261066939,53.64,1.12478098348009,19.2528823200483,171.42314,171.06721,1.4135134794922,0.880486330777864,-0.754339102412521,-68.6051081108287,-0.025786951,-0.017670779,-1.0147717,1.0152531,-0.02002452,-0.011706966,0.05993068,0.064262904,0.0231955690335195,53.64,1.15935521856938,1.201,12,51.0249883,13.7241333,161.074,0,-0.01,-0.23,0.21182346,30.2784897176796,1,0,0.68247426,0,0,6229,6492,5857,5635,11.51,11.51,11.49,11.58,2.12,2.35,1.96,1.73,1.1,-2,0,-683,12,0.413716121193943,-1.13448938343807,103.715659499875,11574,1925.011,73
71.16,171.51035,171.6103,1.50071745898438,0.818273849613546,-0.771830386130117,-50.4546061317454,-0.021909606,-0.016783684,-1.0138992,1.0142748,-0.083918326,-0.039746325,0.10395971,0.13939038,0.0928550261066939,53.64,1.12478098348009,19.2528823200483,171.42314,171.06721,1.4135134794922,0.880486330777864,-0.754339102412521,-68.6051081108287,-0.025786951,-0.017670779,-1.0147717,1.0152531,-0.02002452,-0.011706966,0.05993068,0.064262904,0.0231955690335195,53.64,1.15935521856938,1.201,12,51.0249883,13.7241333,161.074,0,-0.01,-0.23,0.21182346,30.2784897176796,1,0,0.68247426,0,0,6229,6492,5857,5635,11.51,11.51,11.49,11.58,2.12,2.35,1.96,1.73,1.1,-2,0,-683,12,0.413716121193943,-1.13448938343807,103.715659499875,11574,1925.011,73
71.199,171.51035,171.6103,1.50071745898438,0.818273849613546,-0.771830386130117,-50.4546061317454,-0.021909606,-0.016783684,-1.0138992,1.0142748,-0.083918326,-0.039746325,0.10395971,0.13939038,0.0928550261066939,53.64,1.12478098348009,19.2528823200483,171.4786,171.06192,1.46897917773438,6.49007138703181,-0.965067335265165,-68.6005271987677,-0.031441133,0.012460734,-1.0160481,1.0166107,-0.0015613579,0.004572398,0.043257654,0.04352665,0.00483163146592832,53.65,6.56022475867798,1.201,12,51.0249883,13.7241333,161.074,0,-0.01,-0.23,0.21182346,30.2784897176796,1,0,0.68247426,0,0,6229,6492,5857,5635,11.51,11.51,11.49,11.58,2.12,2.35,1.96,1.73,1.1,-2,0,-683,12,0.413716121193943,-1.13448938343807,103.715659499875,11574,1925.011,73
71.24,171.61072,171.61249,1.60108977343751,9.36371529374372,-1.02774554495106,-50.3740742051113,-0.022990987,0.005809688,-0.9931645,0.99344754,-0.055974416,-0.002984872,0.07523792,0.09382319,0.0560539461545403,53.65,9.41797740820983,19.3159544223395,171.4786,171.06192,1.46897917773438,6.49007138703181,-0.965067335265165,-68.6005271987677,-0.031441133,0.012460734,-1.0160481,1.0166107,-0.0015613579,0.004572398,0.043257654,0.04352665,0.00483163146592832,53.65,6.56022475867798,1.201,12,51.0249883,13.7241333,161.074,0,-0.01,-0.23,0.21182346,30.2784897176796,1,0,0.68247426,0,0,6229,6492,5857,5635,11.51,11.51,11.49,11.58,2.12,2.35,1.96,1.73,1.1,1,60,-685,12,0.413716121193943,-1.13448938343807,103.715659499875,11574,1925.011,73
71.28,171.61072,171.61249,1.60108977343751,9.36371529374372,-1.02774554495106,-50.3740742051113,-0.022990987,0.005809688,-0.9931645,0.99344754,-0.055974416,-0.002984872,0.07523792,0.09382319,0.0560539461545403,53.65,9.41797740820983,19.3159544223395,171.4786,171.06192,1.46897917773438,6.49007138703181,-0.965067335265165,-68.6005271987677,-0.031441133,0.012460734,-1.0160481,1.0166107,-0.0015613579,0.004572398,0.043257654,0.04352665,0.00483163146592832,53.65,6.56022475867798,1.207,12,51.0249884,13.7241334,161.031,0.02,-0.02,-0.19,0.21182346,30.2784897176796,1,0,0.68247426,0,0,6229,6492,5857,5635,11.51,11.51,11.49,11.58,2.12,2.35,1.96,1.73,1.1,1,60,-685,12,0.413716121193943,-1.13448938343807,103.715659499875,11574,1925.011,73
71.319,171.51785,171.6095,1.50822478320313,19.4779412161198,-1.70605664537403,-49.0179123342901,-0.025427274,-0.06138604,-1.0317619,1.0338992,0.1303842,0.15609041,0.092914045,0.22360072,0.203382054316186,53.69,19.5416715764409,19.3385392534091,171.29874,171.05667,1.28910857226563,18.9243609883907,-1.60615112960142,-67.4459512046333,-0.027886376,-0.05063288,-1.024149,1.0257789,0.18976645,0.08360313,0.06028447,0.2159514,0.207366312347418,53.68,18.9830286283726,1.207,12,51.0249884,13.7241334,161.031,0.02,-0.02,-0.19,0.21182346,30.2784897176796,1,0,0.68247426,0,0,6229,6492,5857,5635,11.51,11.51,11.49,11.58,2.12,2.35,1.96,1.73,1.1,1,60,-685,12,4.83370903515194,-0.980366062386948,103.510068158906,11574,1925.011,73
71.36,171.51785,171.6095,1.50822478320313,19.4779412161198,-1.70605664537403,-49.0179123342901,-0.025427274,-0.06138604,-1.0317619,1.0338992,0.1303842,0.15609041,0.092914045,0.22360072,0.203382054316186,53.69,19.5416715764409,19.3385392534091,171.29874,171.05667,1.28910857226563,18.9243609883907,-1.60615112960142,-67.4459512046333,-0.027886376,-0.05063288,-1.024149,1.0257789,0.18976645,0.08360313,0.06028447,0.2159514,0.207366312347418,53.68,18.9830286283726,1.207,12,51.0249884,13.7241334,161.031,0.02,-0.02,-0.19,0.21182346,30.2784897176796,1,0,0.68247426,0,0,6229,6492,5857,5635,11.51,11.51,11.49,11.58,2.12,2.35,1.96,1.73,1.1,1,60,-685,12,4.83370903515194,-0.980366062386948,103.510068158906,11574,1925.011,73
71.399,171.51785,171.6095,1.50822478320313,19.4779412161198,-1.70605664537403,-49.0179123342901,-0.025427274,-0.06138604,-1.0317619,1.0338992,0.1303842,0.15609041,0.092914045,0.22360072,0.203382054316186,53.69,19.5416715764409,19.3385392534091,171.56566,171.04965,1.55603056933595,19.8556062929909,-1.40982169413967,-66.6973307370897,-0.03419079,-0.03353823,-1.0924534,1.0935028,0.49205494,0.20723054,0.06195921,0.5374956,0.53391249423329,53.71,19.8980532395515,1.207,12,51.0249884,13.7241334,161.031,0.02,-0.02,-0.19,0.21182346,30.2784897176796,1,0,0.68247426,0,0,6229,6492,5857,5635,11.51,11.51,11.49,11.58,2.12,2.35,1.96,1.73,1.1,1,60,-685,12,4.83370903515194,-0.980366062386948,103.510068158906,11574,1925.011,73
71.44,171.59624,171.60461,1.5866091826172,19.6471635504437,-1.26535040011184,-48.4896025446895,-0.029557988,-0.042824484,-1.0921628,1.0934017,0.3768213,0.3718841,0.078618854,0.5352317,0.529426192923825,53.72,19.6818467044718,19.38729014469,171.56566,171.04965,1.55603056933595,19.8556062929909,-1.40982169413967,-66.6973307370897,-0.03419079,-0.03353823,-1.0924534,1.0935028,0.49205494,0.20723054,0.06195921,0.5374956,0.53391249423329,53.71,19.8980532395515,1.207,12,51.0249884,13.7241334,161.031,0.02,-0.02,-0.19,0.21182346,30.2784897176796,1,0,0.68247426,0,0,6598,6947,6143,6094,11.39,11.41,11.39,11.45,2.48,2.82,2.26,2.1,1.1,1,60,-685,12,4.83370903515194,-0.980366062386948,103.510068158906,11574,1925.011,73
71.48,171.59624,171.60461,1.5866091826172,19.6471635504437,-1.26535040011184,-48.4896025446895,-0.029557988,-0.042824484,-1.0921628,1.0934017,0.3768213,0.3718841,0.078618854,0.5352317,0.529426192923825,53.72,19.6818467044718,19.38729014469,171.56566,171.04965,1.55603056933595,19.8556062929909,-1.40982169413967,-66.6973307370897,-0.03419079,-0.03353823,-1.0924534,1.0935028,0.49205494,0.20723054,0.06195921,0.5374956,0.53391249423329,53.71,19.8980532395515,1.207,12,51.0249888,13.7241334,160.982,0.19,-0.02,-0.14,0.21182346,30.2784897176796,1,0,0.68247426,0,0,6598,6947,6143,6094,11.39,11.41,11.39,11.45,2.48,2.82,2.26,2.1,1.1,1,60,-685,12,4.83370903515194,-0.980366062386948,103.510068158906,11574,1925.011,73
71.519,171.63939,171.60072,1.62976103808595,19.4275737339349,-1.04345256293026,-48.2690568591761,-0.04445506,-0.035587795,-1.1023508,1.1038207,0.6128847,0.59546757,0.035250545,0.8552496,0.854522844037123,53.75,19.4515187627221,19.4741119532262,171.76082,171.04494,1.75119048144532,19.4959392903318,-1.16944269085726,-66.448418499846,-0.037066296,-0.035312116,-1.0985056,1.099698,0.78987116,0.34432983,0.021182958,0.8619212,0.86166088224667,53.76,19.5258722064034,1.207,12,51.0249888,13.7241334,160.982,0.19,-0.02,-0.14,0.21182346,30.2784897176796,1,-0.039072163,1,0,0,6598,6947,6143,6094,11.39,11.41,11.39,11.45,2.48,2.82,2.26,2.1,1.1,0,191,-664,12,19.9160115587049,-1.53718198237103,105.421505887807,11574,1925.011,73
71.56,171.63939,171.60072,1.62976103808595,19.4275737339349,-1.04345256293026,-48.2690568591761,-0.04445506,-0.035587795,-1.1023508,1.1038207,0.6128847,0.59546757,0.035250545,0.8552496,0.854522844037123,53.75,19.4515187627221,19.4741119532262,171.76082,171.04494,1.75119048144532,19.4959392903318,-1.16944269085726,-66.448418499846,-0.037066296,-0.035312116,-1.0985056,1.099698,0.78987116,0.34432983,0.021182958,0.8619212,0.86166088224667,53.76,19.5258722064034,1.207,12,51.0249888,13.7241334,160.982,0.19,-0.02,-0.14,0.21182346,30.2784897176796,1,-0.039072163,1,0,0,6598,6947,6143,6094,11.39,11.41,11.39,11.45,2.48,2.82,2.26,2.1,1.1,0,191,-664,12,19.9160115587049,-1.53718198237103,105.421505887807,11574,1925.011,73
71.599,171.63939,171.60072,1.62976103808595,19.4275737339349,-1.04345256293026,-48.2690568591761,-0.04445506,-0.035587795,-1.1023508,1.1038207,0.6128847,0.59546757,0.035250545,0.8552496,0.854522844037123,53.75,19.4515187627221,19.4741119532262,171.75809,171.04424,1.74845915820313,19.639100003724,-0.161124543170617,-66.3390514479753,-0.04551485,-0.037192322,-1.0768282,1.0784312,1.0683495,0.4950077,-0.016706761,1.1775748,1.17745629312508,53.77,19.6396631468373,1.207,12,51.0249888,13.7241334,160.982,0.19,-0.02,-0.14,0.21182346,30.2784897176796,1,-0.039072163,1,0,0,6598,6947,6143,6094,11.39,11.41,11.39,11.45,2.48,2.82,2.26,2.1,1.1,0,191,-664,12,19.9160115587049,-1.53718198237103,105.421505887807,11574,1925.011,73
71.641,171.73802,171.61072,1.72839385058595,19.6993432087747,-0.0908067091814547,-48.1746903248712,-0.041976955,-0.039415665,-1.0625222,1.0640813,0.8448154,0.84619904,-0.0035571754,1.1957334,1.19572815493457,53.78,19.6995213515369,19.6046578180151,171.75809,171.04424,1.74845915820313,19.639100003724,-0.161124543170617,-66.3390514479753,-0.04551485,-0.037192322,-1.0768282,1.0784312,1.0683495,0.4950077,-0.016706761,1.1775748,1.17745629312508,53.77,19.6396631468373,1.207,12,51.0249888,13.7241334,160.982,0.19,-0.02,-0.14,0.21182346,30.2784897176796,1,-0.039072163,1,0,0,6598,6947,6143,6094,11.39,11.41,11.39,11.45,2.48,2.82,2.26,2.1,1.1,0,191,-664,12,19.9160115587049,-1.53718198237103,105.421505887807,11491,2196.988,73
71.681,171.73802,171.61072,1.72839385058595,19.6993432087747,-0.0908067091814547,-48.1746903248712,-0.041976955,-0.039415665,-1.0625222,1.0640813,0.8448154,0.84619904,-0.0035571754,1.1957334,1.19572815493457,53.78,19.6995213515369,19.6046578180151,171.75809,171.04424,1.74845915820313,19.639100003724,-0.161124543170617,-66.3390514479753,-0.04551485,-0.037192322,-1.0768282,1.0784312,1.0683495,0.4950077,-0.016706761,1.1775748,1.17745629312508,53.77,19.6396631468373,1.207,12,51.0249901,13.7241333,161.036,0.79,0.02,-0.11,0.21182346,30.2784897176796,1,-0.039072163,1,0,0,6598,6947,6143,6094,11.39,11.41,11.39,11.45,2.48,2.82,2.26,2.1,1.1,0,191,-664,12,19.9160115587049,-1.53718198237103,105.421505887807,11491,2196.988,73
71.719,171.91225,171.63196,1.90261870410157,19.8958653973561,-0.455145694904003,-48.3867827986583,-0.05457967,-0.047424287,-1.0613518,1.0638119,1.061509,1.1001408,-0.041181587,1.5293158,1.52876126201783,53.8,19.9002815300742,19.7564147032511,171.5431,171.04674,1.53347807910157,19.7735950618747,-0.356190214935355,-66.4904593047274,-0.055983458,-0.041118212,-1.072817,1.0750633,1.3400406,0.6643957,-0.043981325,1.4963504,1.49570390288322,53.82,19.7763221234097,1.207,12,51.0249901,13.7241333,161.036,0.79,0.02,-0.11,0.21182346,30.2784897176796,1,-0.039072163,1,0,0,6598,6947,6143,6094,11.39,11.41,11.39,11.45,2.48,2.82,2.26,2.1,1.1,0,191,-664,12,19.7561008647307,-0.312911202352538,105.796957012445,11491,2196.988,73
71.761,171.91225,171.63196,1.90261870410157,19.8958653973561,-0.455145694904003,-48.3867827986583,-0.05457967,-0.047424287,-1.0613518,1.0638119,1.061509,1.1001408,-0.041181587,1.5293158,1.52876126201783,53.8,19.9002815300742,19.7564147032511,171.5431,171.04674,1.53347807910157,19.7735950618747,-0.356190214935355,-66.4904593047274,-0.055983458,-0.041118212,-1.072817,1.0750633,1.3400406,0.6643957,-0.043981325,1.4963504,1.49570390288322,53.82,19.7763221234097,1.207,12,51.0249901,13.7241333,161.036,0.79,0.02,-0.11,0.21182346,30.2784897176796,1,-0.039072163,1,0,0,6598,6947,6143,6094,11.39,11.41,11.39,11.45,2.48,2.82,2.26,2.1,1.1,0,191,-664,12,19.7561008647307,-0.312911202352538,105.796957012445,11491,2196.988,73
71.799,171.91225,171.63196,1.90261870410157,19.8958653973561,-0.455145694904003,-48.3867827986583,-0.05457967,-0.047424287,-1.0613518,1.0638119,1.061509,1.1001408,-0.041181587,1.5293158,1.52876126201783,53.8,19.9002815300742,19.7564147032511,171.74673,171.05002,1.73710661914063,19.6393040995864,-0.580882012278177,-68.2284082683932,-0.056202494,-0.05048804,-1.0549953,1.0576969,1.631484,0.7792189,-0.04546408,1.8085877,1.8080160647877,53.84,19.6466221192302,1.258,12,51.0249901,13.7241333,161.036,0.79,0.02,-0.11,0.21182346,30.2784897176796,1,-0.039072163,1,0,0,6598,6947,6143,6094,11.39,11.41,11.39,11.45,2.48,2.82,2.26,2.1,1.1,0,191,-664,12,19.7561008647307,-0.312911202352538,105.796957012445,11491,2196.988,73
71.841,171.67268,171.65273,1.66305571582032,19.622358817582,-0.524105685170335,-48.3989061548178,-0.062252533,-0.04214204,-1.0614325,1.0640913,1.2624809,1.3365874,-0.05877488,1.839505,1.8385657145915,53.84,19.6283232248793,19.9293010508097,171.74673,171.05002,1.73710661914063,19.6393040995864,-0.580882012278177,-68.2284082683932,-0.056202494,-0.05048804,-1.0549953,1.0576969,1.631484,0.7792189,-0.04546408,1.8085877,1.8080160647877,53.84,19.6466221192302,1.258,12,51.0249901,13.7241333,161.036,0.79,0.02,-0.11,0.21182346,30.2784897176796,1,-0.039072163,1,0,0,6598,6947,6143,6094,11.39,11.41,11.39,11.45,2.48,2.82,2.26,2.1,1.1,5,192,-679,12,19.7561008647307,-0.312911202352538,105.796957012445,11491,2196.988,73
71.88,171.67268,171.65273,1.66305571582032,19.622358817582,-0.524105685170335,-48.3989061548178,-0.062252533,-0.04214204,-1.0614325,1.0640913,1.2624809,1.3365874,-0.05877488,1.839505,1.8385657145915,53.84,19.6283232248793,19.9293010508097,171.74673,171.05002,1.73710661914063,19.6393040995864,-0.580882012278177,-68.2284082683932,-0.056202494,-0.05048804,-1.0549953,1.0576969,1.631484,0.7792189,-0.04546408,1.8085877,1.8080160647877,53.84,19.6466221192302,1.258,12,51.0249922,13.7241337,161.036,1.23,0.19,-0.06,0.21182346,30.2784897176796,1,-0.039072163,1,0,0,6598,6947,6143,6094,11.39,11.41,11.39,11.45,2.48,2.82,2.26,2.1,1.1,5,192,-679,12,19.7561008647307,-0.312911202352538,105.796957012445,11491,2196.988,73
71.919,171.55998,171.67514,1.5503542998047,19.9115209132555,-0.619079240366898,-48.2922341155762,-0.07278941,-0.054659776,-1.0379889,1.0419726,1.4512498,1.5768852,-0.06347455,2.1439967,2.14305700550812,53.88,19.9196818127714,20.1264659184579,171.97354,171.05264,1.96391325976563,19.8687615000221,-0.607024291821212,-69.6834139648122,-0.07389089,-0.05115605,-1.0384382,1.0423199,1.9191996,0.88594335,-0.037226822,2.1141448,2.11381707299923,53.88,19.8766302935026,1.258,11,51.0249922,13.7241337,161.036,1.23,0.19,-0.06,0.21182346,30.2784897176796,1,-0.12979381,1,0,0,6598,6947,6143,6094,11.39,11.41,11.39,11.45,2.48,2.82,2.26,2.1,1.1,5,192,-679,12,19.9450386333839,-0.61300955829127,105.588321644141,11491,2196.988,73
71.956,171.55998,171.67514,1.5503542998047,19.9115209132555,-0.619079240366898,-48.2922341155762,-0.07278941,-0.054659776,-1.0379889,1.0419726,1.4512498,1.5768852,-0.06347455,2.1439967,2.14305700550812,53.88,19.9196818127714,20.1264659184579,171.97354,171.05264,1.96391325976563,19.8687615000221,-0.607024291821212,-69.6834139648122,-0.07389089,-0.05115605,-1.0384382,1.0423199,1.9191996,0.88594335,-0.037226822,2.1141448,2.11381707299923,53.88,19.8766302935026,1.258,11,51.0249922,13.7241337,161.036,1.23,0.19,-0.06,0.21182346,30.2784897176796,1,-0.12979381,1,0,0,6123,6879,6172,6125,11.46,11.45,11.46,11.51,2.12,2.66,2.34,2.01,1.1,5,192,-679,12,19.9450386333839,-0.61300955829127,105.588321644141,11491,2196.988,73
71.999,171.55998,171.67514,1.5503542998047,19.9115209132555,-0.619079240366898,-48.2922341155762,-0.07278941,-0.054659776,-1.0379889,1.0419726,1.4512498,1.5768852,-0.06347455,2.1439967,2.14305700550812,53.88,19.9196818127714,20.1264659184579,172.05959,171.05447,2.04995757128907,19.883973340714,-0.845845218660843,-70.5483283832868,-0.0719091,-0.055395342,-1.0368595,1.0408252,2.1945536,1.0093955,-0.017952159,2.4156299,2.41556312313998,53.91,19.8992334139413,1.258,11,51.0249922,13.7241337,161.036,1.23,0.19,-0.06,0.21182346,30.2784897176796,1,-0.12979381,1,0,0,6123,6879,6172,6125,11.46,11.45,11.46,11.51,2.12,2.66,2.34,2.01,1.1,5,192,-679,12,19.9450386333839,-0.61300955829127,105.588321644141,11491,2196.988,73
72.041,171.73741,171.68297,1.72778349902345,19.8347969023,-0.81577333733212,-48.3689334743174,-0.0699605,-0.05823473,-1.0351799,1.0391742,1.6349311,1.81377,-0.047879305,2.442346,2.44187661484567,53.91,19.8490385403975,20.3410892528797,172.05959,171.05447,2.04995757128907,19.883973340714,-0.845845218660843,-70.5483283832868,-0.0719091,-0.055395342,-1.0368595,1.0408252,2.1945536,1.0093955,-0.017952159,2.4156299,2.41556312313998,53.91,19.8992334139413,1.258,11,51.0249922,13.7241337,161.036,1.23,0.19,-0.06,0.21182346,30.2784897176796,1,-0.12979381,1,0,0,6123,6879,6172,6125,11.46,11.45,11.46,11.51,2.12,2.66,2.34,2.01,1.1,5,192,-679,12,19.9450386333839,-0.61300955829127,105.588321644141,11491,2196.988,73
72.08,171.73741,171.68297,1.72778349902345,19.8347969023,-0.81577333733212,-48.3689334743174,-0.0699605,-0.05823473,-1.0351799,1.0391742,1.6349311,1.81377,-0.047879305,2.442346,2.44187661484567,53.91,19.8490385403975,20.3410892528797,172.05959,171.05447,2.04995757128907,19.883973340714,-0.845845218660843,-70.5483283832868,-0.0719091,-0.055395342,-1.0368595,1.0408252,2.1945536,1.0093955,-0.017952159,2.4156299,2.41556312313998,53.91,19.8992334139413,1.258,11,51.0249958,13.7241344,161.087,1.96,0.33,-0.06,0.21182346,30.2784897176796,1,-0.12979381,1,0,0,6123,6879,6172,6125,11.46,11.45,11.46,11.51,2.12,2.66,2.34,2.01,1.1,5,192,-679,12,19.9450386333839,-0.61300955829127,105.588321644141,11491,2196.988,73
72.119,171.92618,171.70992,1.91654997851563,19.3165826217833,-0.979671026380665,-48.3625373106348,-0.075824514,-0.07576038,-1.0267042,1.0322841,1.7949164,2.026474,-0.029502753,2.707248,2.70708726436906,53.95,19.3378511692165,20.5529619078659,172.13815,171.05463,2.12852507617188,19.6112295053186,-0.975030503788302,-70.9819188284964,-0.07105769,-0.07266141,-1.015459,1.0205321,2.455987,1.1350346,0.0020388835,2.705583,2.70558222401361,53.93,19.6318802990369,1.258,12,51.0249958,13.7241344,161.087,1.96,0.33,-0.06,0.21182346,30.2784897176796,1,-0.12979381,1,0,0,6123,6879,6172,6125,11.46,11.45,11.46,11.51,2.12,2.66,2.34,2.01,1.1,1,191,-709,12,20.1796520200274,-0.881272250856827,105.657502398779,11491,2196.988,73
72.16,171.92618,171.70992,1.91654997851563,19.3165826217833,-0.979671026380665,-48.3625373106348,-0.075824514,-0.07576038,-1.0267042,1.0322841,1.7949164,2.026474,-0.029502753,2.707248,2.70708726436906,53.95,19.3378511692165,20.5529619078659,172.13815,171.05463,2.12852507617188,19.6112295053186,-0.975030503788302,-70.9819188284964,-0.07105769,-0.07266141,-1.015459,1.0205321,2.455987,1.1350346,0.0020388835,2.705583,2.70558222401361,53.93,19.6318802990369,1.258,12,51.0249958,13.7241344,161.087,1.96,0.33,-0.06,0.21182346,30.2784897176796,1,-0.12979381,1,0,0,6123,6879,6172,6125,11.46,11.45,11.46,11.51,2.12,2.66,2.34,2.01,1.1,1,191,-709,12,20.1796520200274,-0.881272250856827,105.657502398779,11491,2196.988,73
72.199,171.92618,171.70992,1.91654997851563,19.3165826217833,-0.979671026380665,-48.3625373106348,-0.075824514,-0.07576038,-1.0267042,1.0322841,1.7949164,2.026474,-0.029502753,2.707248,2.70708726436906,53.95,19.3378511692165,20.5529619078659,171.75368,171.05351,1.74404936816407,18.5081025769957,-1.35225256687593,-72.2874724773596,-0.07358003,-0.080790035,-1.0513912,1.0570548,2.7194397,1.2078178,0.003904086,2.9755993,2.97559683446889,53.96,18.5509204212064,1.258,12,51.0249958,13.7241344,161.087,1.96,0.33,-0.06,0.21182346,30.2784897176796,1,-0.12979381,1,0,0,6123,6879,6172,6125,11.46,11.45,11.46,11.51,2.12,2.66,2.34,2.01,1.1,1,191,-709,12,20.1796520200274,-0.881272250856827,105.657502398779,11491,2196.988,73
72.241,171.59413,171.72305,1.58450346972657,18.4987949742039,-1.28317800877224,-48.3037204430728,-0.08032384,-0.07400055,-1.0630515,1.068647,1.9538777,2.2347121,-0.041305058,2.9687173,2.96843003004311,53.99,18.537379434785,20.7923983264684,171.75368,171.05351,1.74404936816407,18.5081025769957,-1.35225256687593,-72.2874724773596,-0.07358003,-0.080790035,-1.0513912,1.0570548,2.7194397,1.2078178,0.003904086,2.9755993,2.97559683446889,53.96,18.5509204212064,1.258,12,51.0249958,13.7241344,161.087,1.96,0.33,-0.06,0.21182346,30.2784897176796,1,-0.12979381,1,0,0,6123,6879,6172,6125,11.46,11.45,11.46,11.51,2.12,2.66,2.34,2.01,1.1,1,191,-709,12,20.1796520200274,-0.881272250856827,105.657502398779,11491,2196.988,73
72.28,171.59413,171.72305,1.58450346972657,18.4987949742039,-1.28317800877224,-48.3037204430728,-0.08032384,-0.07400055,-1.0630515,1.068647,1.9538777,2.2347121,-0.041305058,2.9687173,2.96843003004311,53.99,18.537379434785,20.7923983264684,171.75368,171.05351,1.74404936816407,18.5081025769957,-1.35225256687593,-72.2874724773596,-0.07358003,-0.080790035,-1.0513912,1.0570548,2.7194397,1.2078178,0.003904086,2.9755993,2.97559683446889,53.96,18.5509204212064,1.361,12,51.0250003,13.7241355,161.07,2.54,0.46,-0.01,0.21182346,30.2784897176796,1,-0.12979381,1,0,0,6123,6879,6172,6125,11.46,11.45,11.46,11.51,2.12,2.66,2.34,2.01,1.1,1,191,-709,12,20.1796520200274,-0.881272250856827,105.657502398779,11491,2196.988,73
72.319,171.63095,171.74625,1.62132292773438,18.76864045697,1.64229394171254,-47.8300148126064,-0.09104048,-0.07572349,-1.0256438,1.0324571,2.0942857,2.450666,-0.047074478,3.2239747,3.22363088954994,54,18.8306346445686,21.0495698871901,171.3573,171.05302,1.34767180468751,18.8578671825518,0.606297078014022,-73.046239934256,-0.09480052,-0.07865436,-1.0662066,1.0732987,2.9670246,1.2772588,0.005838378,3.2302723,3.23026696604724,54,18.866276155934,1.361,11,51.0250003,13.7241355,161.07,2.54,0.46,-0.01,0.21182346,30.2784897176796,1,-0.18731959,1,0.9997938,-0.3280851,6123,6879,6172,6125,11.46,11.45,11.46,11.51,2.12,2.66,2.34,2.01,1.1,1,191,-709,12,18.7887458987299,-1.35928703598178,105.646372626894,11491,2196.988,73
72.36,171.63095,171.74625,1.62132292773438,18.76864045697,1.64229394171254,-47.8300148126064,-0.09104048,-0.07572349,-1.0256438,1.0324571,2.0942857,2.450666,-0.047074478,3.2239747,3.22363088954994,54,18.8306346445686,21.0495698871901,171.3573,171.05302,1.34767180468751,18.8578671825518,0.606297078014022,-73.046239934256,-0.09480052,-0.07865436,-1.0662066,1.0732987,2.9670246,1.2772588,0.005838378,3.2302723,3.23026696604724,54,18.866276155934,1.361,11,51.0250003,13.7241355,161.07,2.54,0.46,-0.01,0.21182346,30.2784897176796,1,-0.18731959,1,0.9997938,-0.3280851,6123,6879,6172,6125,11.46,11.45,11.46,11.51,2.12,2.66,2.34,2.01,1.1,1,191,-709,12,18.7887458987299,-1.35928703598178,105.646372626894,11491,2196.988,73
72.399,171.63095,171.74625,1.62132292773438,18.76864045697,1.64229394171254,-47.8300148126064,-0.09104048,-0.07572349,-1.0256438,1.0324571,2.0942857,2.450666,-0.047074478,3.2239747,3.22363088954994,54,18.8306346445686,21.0495698871901,171.63947,171.05092,1.62983733203126,18.7640050748155,4.02956692797091,-73.0939126578518,-0.069435745,-0.066946305,-0.98493296,0.9896444,3.1972425,1.401634,0.03782747,3.4911842,3.49097942304926,54.02,19.1344092514782,1.361,11,51.0250003,13.7241355,161.07,2.54,0.46,-0.01,0.21182346,30.2784897176796,1,-0.18731959,1,0.9997938,-0.3280851,6123,6879,6172,6125,11.46,11.45,11.46,11.51,2.12,2.66,2.34,2.01,1.1,1,191,-709,12,18.7887458987299,-1.35928703598178,105.646372626894,11491,2196.988,73
72.44,171.79948,171.76205,1.7898562529297,18.9013472069333,4.48686476511195,-46.6897736112463,-0.07446597,-0.07065534,-1.0140674,1.0192498,2.189259,2.7073777,-0.022608712,3.4818473,3.4817738767205,54.02,19.3553362814749,21.3132262937127,171.63947,171.05092,1.62983733203126,18.7640050748155,4.02956692797091,-73.0939126578518,-0.069435745,-0.066946305,-0.98493296,0.9896444,3.1972425,1.401634,0.03782747,3.4911842,3.49097942304926,54.02,19.1344092514782,1.361,11,51.0250003,13.7241355,161.07,2.54,0.46,-0.01,0.21182346,30.2784897176796,1,-0.18731959,1,0.9997938,-0.3280851,6049,6958,6393,5911,11.44,11.44,11.44,11.49,2.1,2.68,2.48,1.89,1.1,48,184,-714,13,18.7887458987299,-1.35928703598178,105.646372626894,11491,2196.988,73
72.481,171.79948,171.76205,1.7898562529297,18.9013472069333,4.48686476511195,-46.6897736112463,-0.07446597,-0.07065534,-1.0140674,1.0192498,2.189259,2.7073777,-0.022608712,3.4818473,3.4817738767205,54.02,19.3553362814749,21.3132262937127,171.63947,171.05092,1.62983733203126,18.7640050748155,4.02956692797091,-73.0939126578518,-0.069435745,-0.066946305,-0.98493296,0.9896444,3.1972425,1.401634,0.03782747,3.4911842,3.49097942304926,54.02,19.1344092514782,1.361,11,51.025006,13.7241371,161.135,3.08,0.55,-0.03,0.21182346,30.2784897176796,1,-0.18731959,1,0.9997938,-0.3280851,6049,6958,6393,5911,11.44,11.44,11.44,11.49,2.1,2.68,2.48,1.89,1.1,48,184,-714,13,18.7887458987299,-1.35928703598178,105.646372626894,11491,2196.988,73
72.519,171.84135,171.79683,1.8317263701172,18.9184515084411,5.40539702138357,-45.1993814190983,-0.07652991,-0.087829255,-1.048394,1.0548463,2.2576833,3.004428,-0.017863203,3.7581964,3.75815395144234,54.06,19.5732648396436,21.7212300331839,171.47255,171.04532,1.46292143847657,19.1566781277461,5.2786494039233,-72.4736719003692,-0.06839256,-0.07435475,-1.0144768,1.0194947,3.4186573,1.5811443,0.06449305,3.7671466,3.76659459970675,54.05,19.7717621312848,1.361,12,51.025006,13.7241371,161.135,3.08,0.55,-0.03,0.21182346,30.2784897176796,1,-0.18731959,1,0.9997938,-0.3280851,6049,6958,6393,5911,11.44,11.44,11.44,11.49,2.1,2.68,2.48,1.89,1.1,48,184,-714,13,18.8991437150352,3.7201381422632,106.894819723249,11491,2196.988,73
